aX,aY,aZ,gX,gY,gZ
0.394,0.542,1.528,-13.916,4.639,-33.691
0.257,0.282,1.725,-6.897,-9.583,-52.917
0.019,0.002,1.975,-5.432,-20.142,-69.519
-0.201,-0.199,2.199,-10.803,-20.752,-80.688
-0.309,-0.335,2.089,-32.898,-2.197,-87.402
-0.332,-0.463,1.841,-57.251,22.949,-90.027
-0.333,-0.618,1.635,-68.665,32.532,-85.083
-0.322,-0.833,1.561,-77.454,28.381,-71.655
-0.327,-0.984,1.586,-87.463,19.653,-50.110
-0.359,-0.951,1.780,-97.778,6.897,-19.531
-0.359,-0.802,1.889,-108.093,3.906,8.423
-0.287,-0.638,1.801,-107.178,14.404,25.085
-0.215,-0.538,1.698,-97.595,21.667,27.710
-0.112,-0.605,1.573,-92.285,23.865,18.799
-0.021,-0.665,1.509,-92.285,21.851,8.728
-0.004,-0.749,1.422,-91.248,20.874,0.427
0.033,-0.723,1.270,-89.478,23.804,-3.906
0.103,-0.745,1.067,-95.703,26.917,-11.536
0.191,-0.818,0.892,-100.891,22.339,-23.071
0.249,-0.932,0.912,-99.487,4.517,-30.762
0.201,-1.006,1.042,-88.562,-16.357,-26.978
0.127,-0.974,1.128,-85.999,-25.940,-14.893
0.044,-0.960,1.053,-70.923,-20.264,-4.517
-0.002,-0.919,0.911,-42.114,-10.376,1.465
0.004,-0.853,0.773,-15.137,-6.226,4.150
0.018,-0.780,0.675,0.549,-2.808,3.723
0.014,-0.769,0.505,16.907,3.906,1.526
0.074,-0.743,0.367,41.260,8.301,1.709
0.073,-0.671,0.230,64.880,8.362,5.005
0.104,-0.581,0.137,75.134,6.592,7.385
0.249,-0.219,0.250,110.413,3.723,12.024
0.169,-0.162,0.118,227.844,9.521,7.568
0.073,-0.158,-0.190,258.118,31.189,-7.874
-0.016,-0.153,-0.550,245.056,37.720,-11.597
-0.067,-0.111,-0.764,196.350,21.973,-13.550
-0.065,0.125,-0.676,101.318,-7.629,-9.583
-0.045,0.390,-0.382,60.059,-38.391,-6.042
0.123,0.417,-0.330,85.083,-40.466,-20.447
0.119,0.402,-0.409,83.923,-27.344,-34.851
0.149,0.385,-0.376,43.518,-31.311,-40.894
0.181,0.317,-0.232,22.034,-43.945,-44.922
0.228,0.362,0.032,17.639,-52.429,-39.429
0.278,0.369,0.098,54.077,-46.631,-31.433
0.325,0.491,0.067,85.876,-40.649,-18.921
0.282,0.689,0.084,106.262,-33.569,-11.963
0.225,0.814,0.209,134.766,-27.527,-22.461
0.300,0.849,0.275,129.395,-14.771,-46.082
0.332,0.743,0.369,96.436,-7.812,-77.759
0.395,0.492,0.444,67.200,-1.221,-111.633
0.463,0.159,0.575,36.560,1.831,-136.475
0.466,-0.100,0.746,5.920,-0.916,-141.052
0.403,-0.243,0.936,-22.461,-2.319,-126.343
0.448,-0.154,1.039,-37.109,5.981,-100.891
0.386,-0.076,1.153,-35.156,7.751,-80.017
0.273,0.006,1.203,-49.866,14.709,-59.387
0.276,0.133,1.165,-56.885,26.611,-38.391
0.291,0.240,1.105,-61.279,28.992,-25.024
0.269,0.329,1.131,-83.923,20.813,-18.738
0.289,0.433,1.194,-116.272,11.902,-16.357
0.328,0.544,1.287,-148.010,4.456,-15.930
0.459,0.663,1.331,-172.668,-3.235,-16.663
0.532,0.687,1.429,-184.021,-14.648,-20.325
0.567,0.602,1.560,-183.777,-29.053,-23.132
0.547,0.474,1.677,-195.679,-34.607,-20.752
0.495,0.416,1.765,-221.191,-25.757,-7.385
0.422,0.434,1.766,-220.947,-5.554,15.564
0.373,0.606,2.064,-182.556,26.123,39.551
0.251,0.436,1.486,-63.293,73.730,57.678
0.225,0.540,1.081,-60.669,102.600,79.285
0.110,0.690,1.048,-34.790,93.445,93.567
0.015,0.811,1.096,-22.705,75.562,94.788
0.013,0.806,1.085,-25.818,60.913,83.740
0.012,0.699,1.180,-10.010,40.527,67.200
-0.043,0.555,1.359,10.376,15.869,53.284
-0.045,0.385,1.521,12.146,-4.822,40.771
-0.052,0.204,1.706,7.141,-17.517,29.480
-0.050,0.017,1.781,6.836,-21.606,24.780
-0.048,-0.106,1.782,7.629,-19.653,28.870
-0.009,-0.096,1.683,3.052,-12.878,39.673
-0.002,-0.021,1.518,-3.174,-6.531,48.462
-0.041,0.003,1.378,-4.028,-4.456,49.133
-0.060,-0.045,1.219,-1.465,-4.883,44.128
-0.073,-0.114,1.084,1.709,-9.766,37.659
-0.092,-0.159,1.023,7.385,-19.531,31.311
-0.121,-0.149,1.028,15.076,-29.663,23.254
-0.182,-0.270,1.061,19.775,-37.537,8.362
-0.226,-0.385,1.156,23.071,-44.434,-3.601
-0.239,-0.458,1.249,21.667,-44.373,-7.935
-0.229,-0.535,1.286,13.855,-34.363,-7.568
-0.201,-0.500,1.279,3.906,-18.311,-0.366
-0.161,-0.370,1.191,-7.324,-0.488,9.216
-0.123,-0.254,1.054,-9.399,15.869,12.939
-0.057,-0.197,0.905,-4.822,26.123,11.536
0.008,-0.148,0.797,0.183,28.320,8.789
0.047,-0.106,0.745,2.625,24.353,6.775
0.084,-0.066,0.701,5.920,18.005,4.822
0.110,-0.012,0.655,9.460,9.766,3.601
0.100,0.033,0.689,13.245,-1.099,2.014
0.092,0.067,0.779,16.785,-10.864,-1.221
0.102,0.078,0.881,21.729,-18.250,-5.310
0.112,0.063,0.965,26.428,-21.790,-9.155
0.124,0.043,1.009,27.466,-21.790,-10.681
0.134,0.036,1.038,25.757,-19.836,-9.521
0.138,0.066,1.054,21.729,-16.418,-6.531
0.131,0.083,1.052,17.700,-12.512,-4.150
0.108,0.073,1.064,14.648,-8.240,-2.625
0.094,0.101,1.083,9.399,-3.235,-0.366
0.081,0.111,1.070,4.639,2.380,0.732
0.079,0.121,1.020,0.305,7.996,1.343
0.078,0.117,0.922,-5.981,12.634,1.465
0.070,0.109,0.863,-5.432,11.963,1.343
0.068,0.122,0.911,-3.174,6.042,2.014
0.057,0.121,0.912,3.174,0.366,2.625
0.064,0.118,0.906,4.639,-2.686,2.991
0.061,0.104,0.878,9.521,-5.920,3.601
0.062,0.103,0.920,12.146,-10.925,4.883
0.052,0.118,0.988,20.325,-15.869,7.019
0.029,0.136,1.010,24.231,-16.418,9.766
0.012,0.163,1.003,21.729,-14.221,10.132

-0.345,-0.714,1.978,20.996,-10.376,-17.639
-0.382,-0.736,2.032,-4.700,12.756,-5.127
-0.360,-0.757,1.874,-28.381,40.894,4.456
-0.260,-0.738,1.585,-46.570,62.988,13.367
-0.158,-0.630,1.412,-52.124,62.988,21.851
-0.113,-0.564,1.384,-48.035,46.326,22.400
-0.044,-0.571,1.439,-48.096,26.733,14.221
0.035,-0.634,1.474,-51.575,12.207,4.272
0.088,-0.708,1.526,-54.199,0.732,-1.404
0.123,-0.766,1.615,-57.617,-5.493,-2.869
0.127,-0.830,1.621,-67.078,-2.502,-2.075
0.122,-0.884,1.515,-77.637,5.615,1.282
0.128,-0.815,1.371,-84.473,12.451,7.019
0.083,-0.733,1.129,-85.632,14.343,6.958
0.077,-0.731,0.976,-85.205,5.859,-1.953
0.064,-0.806,0.922,-79.285,-6.042,-13.306
0.078,-0.823,0.804,-74.768,-13.123,-21.179
0.116,-0.766,0.801,-83.069,-25.635,-24.048
0.123,-0.732,0.848,-82.092,-36.377,-28.137
0.126,-0.707,0.870,-85.876,-42.480,-33.386
0.121,-0.721,0.892,-85.571,-44.495,-39.551
0.128,-0.757,0.853,-77.637,-39.307,-44.861
0.109,-0.812,0.738,-63.354,-28.503,-47.058
0.096,-0.823,0.564,-46.997,-16.846,-44.312
0.064,-0.742,0.405,-34.912,-11.658,-36.987
0.061,-0.697,0.301,-12.146,-13.794,-31.921
0.120,-0.655,0.254,15.320,-16.663,-27.649
0.171,-0.581,0.187,39.307,-15.137,-20.447
0.220,-0.493,0.067,60.364,-10.376,-12.939
0.217,-0.393,-0.114,69.275,-2.136,-7.019
0.161,-0.314,-0.330,78.552,4.822,-1.892
0.130,-0.202,-0.343,68.176,1.892,3.235
0.146,-0.040,-0.277,22.644,-3.906,4.395
0.167,0.052,-0.209,-9.583,-10.620,-1.099
0.174,0.066,-0.169,-21.851,-12.695,-12.146
0.193,0.074,-0.159,-25.818,-13.611,-21.851
0.272,0.214,-0.117,-15.015,-14.282,-28.870
0.244,0.331,-0.122,4.150,-13.245,-38.879
0.233,0.289,-0.173,15.076,-11.963,-54.932
0.261,0.229,-0.263,23.010,-13.306,-67.200
0.254,0.247,-0.266,30.579,-20.569,-72.388
0.246,0.302,-0.131,33.691,-31.494,-76.050
0.246,0.235,0.053,37.598,-38.208,-83.008
0.263,0.138,0.142,42.297,-35.339,-86.914
0.272,0.126,0.226,45.593,-27.588,-82.703
0.285,0.182,0.281,47.607,-16.785,-72.998
0.252,0.212,0.461,46.631,-10.803,-63.293
0.232,0.220,0.675,42.786,-0.916,-56.396
0.374,0.211,0.784,34.241,17.212,-50.232
0.382,0.170,0.789,22.766,37.170,-37.354
0.340,0.309,0.766,18.311,57.068,-16.113
0.308,0.522,0.722,22.217,75.806,0.122
0.225,0.689,0.727,28.442,84.106,5.310
0.296,0.856,0.813,33.875,80.811,-3.052
0.413,0.743,0.775,41.138,70.801,-20.142
0.302,0.621,0.918,38.818,42.175,-27.954
0.298,0.555,0.940,27.954,30.029,-25.391
0.333,0.300,0.760,-13.184,18.005,-17.578
0.413,0.195,0.753,-122.803,-8.789,-0.916
0.394,0.377,1.088,-233.215,-48.706,27.100
0.388,0.828,1.568,-296.997,-70.313,54.443
0.338,1.157,1.816,-270.142,-58.533,63.110
0.336,1.309,1.953,-210.144,-25.269,48.157
0.283,1.149,1.930,-75.562,13.000,23.010
0.276,0.683,1.459,11.414,55.481,4.639
0.307,0.553,1.242,-3.418,63.049,13.306
0.240,0.623,1.392,3.540,47.241,33.752
0.196,0.676,1.438,0.610,41.504,48.889
0.189,0.667,1.344,-1.343,43.396,55.725
0.170,0.633,1.316,3.357,38.025,58.228
0.143,0.587,1.369,9.583,26.489,59.143
0.112,0.508,1.413,15.015,17.578,59.204
0.072,0.418,1.430,22.217,13.428,58.228
0.035,0.324,1.479,34.180,10.986,54.565
0.004,0.242,1.522,38.391,9.705,50.354
0.028,0.147,1.475,27.893,10.681,45.715
0.081,0.047,1.386,17.273,13.489,42.480
0.111,-0.032,1.321,14.221,14.282,43.396
0.116,-0.069,1.248,16.052,11.414,49.194
0.091,-0.057,1.179,16.541,7.446,55.115
0.076,-0.033,1.087,19.165,1.770,56.824
0.027,-0.071,1.051,26.672,-10.620,53.284
-0.005,-0.147,1.027,31.677,-25.757,46.326
-0.029,-0.241,1.024,35.034,-41.199,39.734
-0.073,-0.321,1.042,40.466,-53.894,35.095
-0.080,-0.309,1.062,47.363,-60.852,31.738
-0.113,-0.295,1.032,56.580,-62.073,24.658
-0.156,-0.348,1.022,63.904,-62.256,13.367
-0.179,-0.407,1.049,63.171,-63.171,3.723
-0.181,-0.444,1.114,57.190,-61.157,-2.563
-0.154,-0.457,1.171,50.720,-54.321,-5.798
-0.136,-0.402,1.172,40.833,-43.213,-5.798
-0.107,-0.360,1.168,27.649,-31.433,-6.714
-0.079,-0.419,1.170,20.691,-20.020,-9.094
-0.018,-0.436,1.139,12.512,-4.211,-7.874
0.005,-0.356,1.086,1.831,9.460,0.427
0.032,-0.268,0.957,-3.601,20.996,9.094
0.030,-0.150,0.851,-6.287,26.611,14.160
0.025,-0.040,0.830,-6.409,22.034,13.733
0.023,0.012,0.882,-5.859,12.695,7.507
0.010,0.005,0.960,-3.052,4.517,-1.038
0.041,-0.013,0.992,-4.211,0.732,-7.202
0.062,-0.006,1.043,-4.700,-1.892,-9.827
0.060,0.000,1.087,-5.615,-2.747,-9.460
0.078,0.027,1.090,-11.047,0.732,-8.606
0.077,0.029,1.073,-13.794,4.578,-7.202
0.079,0.076,1.030,-13.428,6.104,-4.639
0.065,0.105,1.007,-13.123,6.470,-3.906
0.055,0.099,0.955,-11.841,6.836,-4.700
0.045,0.098,0.913,-12.451,6.104,-4.700
0.033,0.109,0.876,-9.949,3.418,-3.540
0.011,0.119,0.862,-6.775,-0.427,-2.930
0.001,0.134,0.861,-5.554,-5.249,-2.869
0.002,0.142,0.869,-3.540,-11.169,-3.296
0.008,0.118,0.875,0.977,-16.357,-4.822
0.029,0.073,0.919,4.456,-20.386,-4.822
0.062,0.067,0.958,4.822,-21.790,-1.404
0.085,0.100,0.975,4.944,-19.348,4.089
0.103,0.162,0.964,2.197,-15.808,8.057

-0.136,0.337,1.854,88.318,-39.795,-126.709
-0.186,0.046,1.709,76.111,-30.640,-137.329
-0.363,-0.124,1.560,44.006,-24.902,-136.719
-0.559,-0.384,1.612,82.214,-33.569,-137.268
-0.698,-0.635,1.752,118.713,-40.833,-135.498
-0.692,-0.811,1.788,109.863,-33.875,-127.197
-0.790,-1.026,1.729,85.022,-21.118,-122.437
-0.908,-1.126,1.791,53.528,-12.390,-111.694
-0.991,-1.196,1.736,27.710,5.127,-94.727
-1.032,-1.207,1.685,11.230,26.978,-78.186
-0.916,-1.128,1.664,-34.546,44.678,-65.918
-0.680,-1.083,1.454,-76.416,62.683,-63.293
-0.421,-1.130,1.267,-81.116,68.298,-70.007
-0.198,-1.303,1.159,-75.623,58.777,-79.956
-0.077,-1.430,1.168,-87.830,45.105,-84.961
-0.039,-1.557,1.115,-95.154,38.269,-79.834
-0.014,-1.583,1.068,-119.568,31.799,-64.636
-0.025,-1.574,0.979,-138.855,24.841,-43.518
-0.033,-1.454,0.800,-143.677,18.372,-19.287
-0.074,-1.254,0.599,-150.574,6.653,1.587
-0.066,-0.953,0.502,-144.409,-6.226,13.000
-0.037,-0.796,0.421,-135.315,-24.170,9.338
0.043,-0.659,0.339,-124.573,-37.842,-5.554
0.003,-0.608,0.288,-117.004,-44.739,-21.057
-0.011,-0.672,0.226,-98.145,-49.805,-33.447
-0.013,-0.623,0.251,-80.078,-52.246,-38.574
-0.071,-0.702,0.181,-73.242,-45.288,-41.260
-0.140,-0.821,0.226,-60.547,-39.001,-37.109
-0.152,-1.015,0.105,6.165,-30.640,-21.362
-0.076,-0.971,0.047,87.158,-21.118,12.695
0.020,-0.852,-0.125,154.236,-10.498,51.941
0.061,-0.606,-0.299,197.449,1.160,88.989
0.110,-0.390,-0.328,172.546,-3.357,118.347
-0.007,-0.013,-0.262,81.055,-12.756,135.437
0.295,-0.065,-0.304,147.400,-13.306,132.019
0.108,0.251,-0.151,92.651,-24.841,133.972
0.213,0.295,-0.018,28.320,-17.029,125.305
0.283,0.459,0.109,-26.611,-1.892,114.624
0.293,0.430,0.092,-49.316,14.709,104.187
0.224,0.445,0.020,-25.269,29.480,92.896
0.126,0.476,0.023,-21.606,35.828,87.219
0.031,0.471,-0.004,-7.996,39.124,86.731
-0.156,0.498,-0.042,2.197,45.776,87.646
-0.038,0.701,0.010,-9.583,41.138,89.966
0.074,0.819,0.156,-25.818,37.476,75.317
0.190,1.052,0.344,-63.538,48.767,46.387
0.196,1.216,0.301,-63.477,61.890,14.343
0.250,1.026,0.370,-56.458,60.669,-28.687
0.368,0.720,0.372,-40.100,54.626,-63.049
0.389,0.440,0.552,-28.137,37.231,-72.083
0.366,0.411,0.794,-44.861,27.039,-58.411
0.299,0.440,1.045,-50.842,20.752,-36.926
0.285,0.511,1.170,-49.683,31.982,-18.494
0.322,0.558,1.226,-46.082,49.683,-3.052
0.364,0.573,1.114,-33.569,64.148,10.315
0.433,0.595,0.967,-22.095,66.040,25.574
0.402,0.542,0.853,-23.132,51.575,40.771
0.339,0.585,0.850,-49.011,27.222,59.143
0.265,0.779,1.016,-97.351,1.831,74.951
0.176,0.953,1.210,-134.766,-8.423,76.904
0.140,0.995,1.427,-144.836,-14.160,68.787
0.143,0.980,1.543,-136.169,-12.329,54.749
0.085,0.881,1.586,-116.638,-7.751,40.283
0.039,0.761,1.613,-105.957,-7.812,29.480
0.007,0.637,1.630,-106.445,-9.949,21.667
-0.053,0.516,1.650,-123.108,-13.855,17.517
-0.088,0.437,1.720,-154.846,-18.738,18.311
-0.111,0.387,1.785,-177.246,-15.381,21.851
-0.110,0.346,1.728,-175.293,-2.808,26.611
-0.152,0.216,1.665,-161.072,12.878,28.687
-0.142,0.140,1.559,-119.324,25.940,35.522
-0.127,0.052,1.438,-87.341,29.602,47.485
-0.119,0.080,1.318,-95.032,31.555,56.946
-0.125,0.137,1.188,-116.821,25.208,68.420
-0.061,0.428,1.367,-137.451,10.132,75.378
-0.038,0.633,1.364,-120.728,1.465,69.092
-0.035,0.651,1.379,-59.753,-4.883,49.011
-0.077,0.450,1.355,11.292,-12.146,23.743
-0.065,0.393,1.841,46.265,-18.372,2.380
-0.062,-0.197,1.330,105.225,-5.493,-14.526
-0.017,-0.151,1.243,113.403,-4.944,-4.822
-0.036,-0.048,1.264,92.102,-14.404,5.249
-0.043,0.035,1.237,98.450,-17.822,6.653
-0.054,0.073,1.168,116.638,-13.306,1.343
-0.039,0.034,1.065,132.690,-6.775,-7.568
-0.024,-0.076,0.976,138.000,-3.906,-16.968
-0.004,-0.151,0.932,120.056,-3.296,-21.057
-0.012,-0.150,0.944,80.627,-3.906,-17.944
-0.007,-0.076,0.968,44.739,-3.601,-9.888
0.018,0.010,0.946,27.344,-1.892,-2.869
0.042,0.072,0.879,15.442,2.258,-0.061
0.073,0.135,0.804,8.911,1.587,2.319
0.099,0.195,0.806,1.831,-5.981,3.784
0.107,0.236,0.887,-2.625,-14.771,2.563
0.095,0.250,1.000,0.977,-19.470,0.183
0.083,0.258,1.090,7.446,-17.578,-2.075
0.047,0.254,1.102,9.277,-9.644,-3.784
0.006,0.224,1.062,13.794,-0.549,-4.517
0.008,0.200,0.988,13.062,7.263,-2.991
0.016,0.224,0.920,9.399,10.742,-0.427
0.001,0.260,0.872,9.644,10.010,1.282
-0.016,0.294,0.872,10.498,6.592,0.427
-0.013,0.296,0.884,12.695,2.441,-2.136
-0.006,0.268,0.898,18.921,-0.854,-5.005
0.010,0.239,0.925,23.499,-2.441,-7.568
0.017,0.224,0.954,20.874,-0.061,-9.216
0.036,0.226,0.948,13.733,5.005,-9.521
0.048,0.213,0.918,11.963,9.338,-8.911
0.047,0.192,0.869,9.949,11.230,-7.874
0.035,0.177,0.857,8.179,10.315,-5.554
0.032,0.204,0.848,4.944,7.629,-3.052
0.006,0.226,0.872,4.028,4.700,-2.502
-0.006,0.237,0.906,8.850,0.671,-3.601
-0.003,0.232,0.947,14.709,-2.563,-6.042
0.005,0.215,0.962,19.409,-3.906,-8.789
0.018,0.170,0.974,21.118,-4.639,-11.475
0.034,0.146,0.985,20.630,-5.615,-12.390
0.036,0.163,1.003,10.986,-8.118,-11.841
0.005,0.134,1.083,0.122,-11.292,-12.695

0.021,0.991,1.458,-8.484,44.739,52.673
0.043,0.992,1.327,-12.329,47.180,49.011
0.134,1.035,1.200,-17.517,43.213,48.340
0.214,1.065,1.051,-11.475,33.691,46.448
0.219,1.035,0.970,2.747,13.977,40.161
0.194,0.916,1.009,9.033,-15.991,29.175
0.119,0.746,1.253,7.324,-46.326,14.587
-0.018,0.452,1.394,4.211,-66.284,-2.075
-0.260,0.162,1.696,-10.376,-80.139,-15.991
-0.525,-0.020,2.062,-39.368,-82.336,-24.902
-0.774,-0.198,2.227,-56.763,-62.012,-34.790
-0.908,-0.387,2.146,-55.359,-28.687,-44.250
-0.999,-0.559,2.038,-52.856,-2.625,-50.415
-0.999,-0.623,1.984,-50.354,9.521,-49.744
-0.897,-0.605,1.984,-51.636,14.221,-47.913
-0.745,-0.560,2.004,-48.950,15.747,-49.500
-0.543,-0.540,2.012,-50.476,13.672,-55.298
-0.342,-0.626,2.031,-52.917,7.324,-62.439
-0.148,-0.737,2.031,-64.514,3.662,-66.772
-0.052,-0.847,2.022,-77.209,3.845,-64.636
0.044,-0.841,2.015,-92.834,4.639,-55.359
0.151,-0.733,1.932,-108.521,9.460,-44.800
0.261,-0.646,1.733,-114.746,17.517,-40.955
0.358,-0.638,1.560,-112.976,19.531,-45.105
0.486,-0.720,1.331,-99.915,15.686,-51.453
0.557,-0.852,1.096,-80.688,4.944,-53.406
0.562,-0.964,0.907,-62.073,-11.963,-47.424
0.501,-0.968,0.788,-50.232,-30.823,-32.959
0.392,-0.858,0.675,-37.354,-44.739,-15.808
0.221,-0.746,0.526,-17.029,-51.270,-5.310
0.110,-0.579,0.359,-0.183,-52.185,-3.418
0.070,-0.471,0.226,12.695,-55.542,-11.780
0.027,-0.462,0.132,24.231,-58.228,-26.306
-0.021,-0.483,-0.026,31.616,-54.382,-40.527
-0.029,-0.518,-0.267,28.320,-46.509,-49.744
-0.027,-0.539,-0.456,12.268,-47.119,-52.734
-0.008,-0.499,-0.481,-11.292,-62.378,-48.035
0.048,-0.429,-0.383,-27.649,-82.520,-39.612
0.049,-0.340,-0.262,-28.442,-99.060,-33.142
0.029,-0.310,-0.083,-24.902,-106.995,-29.785
0.022,-0.336,0.114,-23.315,-103.882,-27.954
0.059,-0.387,0.239,-17.090,-84.534,-23.743
0.104,-0.384,0.252,-3.967,-56.091,-12.634
0.103,-0.291,0.153,23.987,-26.794,3.601
0.038,-0.153,-0.041,71.716,3.052,18.921
-0.007,-0.026,-0.236,121.765,25.879,27.588
-0.004,0.109,-0.314,131.836,31.738,28.503
-0.010,0.228,-0.297,120.361,23.865,21.667
0.010,0.343,-0.258,113.586,12.939,9.705
0.016,0.436,-0.221,118.774,3.479,-4.517
0.049,0.545,-0.179,111.511,-5.127,-20.203
0.158,0.639,-0.113,87.219,-12.634,-39.063
0.232,0.679,0.021,59.692,-18.433,-60.730
0.299,0.604,0.192,34.729,-22.217,-78.308
0.373,0.506,0.358,4.578,-20.081,-85.205
0.463,0.494,0.485,-27.954,-9.033,-78.247
0.523,0.553,0.575,-47.974,2.441,-59.265
0.525,0.637,0.635,-49.377,14.282,-35.889
0.513,0.734,0.678,-48.889,26.672,-14.282
0.484,0.826,0.734,-45.715,35.645,3.174
0.470,0.880,0.722,-45.044,44.006,15.198
0.452,1.018,0.923,-49.255,50.415,25.940
0.392,1.159,1.151,-44.556,43.579,33.569
0.350,1.223,1.343,-30.701,47.607,30.701
0.322,1.217,1.371,-9.888,58.899,22.644
0.283,1.143,1.432,4.578,62.195,17.700
0.252,1.031,1.471,-2.991,67.200,13.855
0.233,0.939,1.389,-5.310,78.125,16.785
0.234,0.884,1.266,-5.554,87.219,26.917
0.221,0.856,1.156,-1.526,89.355,40.466
0.176,0.820,1.081,3.296,85.327,53.101
0.134,0.802,1.074,7.690,76.172,62.683
0.071,0.790,1.126,12.451,61.401,67.688
0.014,0.773,1.235,9.644,42.236,67.139
-0.069,0.691,1.375,2.625,24.963,60.669
-0.139,0.562,1.480,-7.751,13.794,51.392
-0.158,0.450,1.548,-21.423,9.033,46.021
-0.154,0.390,1.579,-29.358,8.789,45.471
-0.149,0.352,1.567,-35.767,12.573,45.959
-0.155,0.296,1.500,-37.964,18.799,44.983
-0.182,0.223,1.417,-36.743,23.010,41.992
-0.198,0.173,1.340,-34.607,21.606,39.185
-0.210,0.124,1.287,-35.095,15.320,35.095
-0.228,0.039,1.263,-32.715,6.470,29.663
-0.227,-0.051,1.282,-28.992,-2.563,26.489
-0.242,-0.127,1.322,-22.705,-8.057,29.053
-0.257,-0.159,1.354,-21.362,-6.714,36.865
-0.227,-0.090,1.354,-28.015,-1.648,47.546
-0.141,0.033,1.312,-35.828,4.333,57.007
-0.027,0.163,1.251,-32.288,9.949,59.631
0.066,0.256,1.180,-12.085,10.681,53.223
0.111,0.230,1.132,17.273,5.371,39.307
0.113,0.118,1.137,36.560,-4.395,22.522
0.100,0.015,1.196,41.443,-15.991,9.460
0.076,-0.036,1.261,42.480,-24.414,0.854
0.049,-0.096,1.298,47.180,-27.222,-5.920
0.013,-0.164,1.298,56.580,-25.391,-11.292
-0.016,-0.231,1.272,64.270,-19.836,-13.977
-0.029,-0.270,1.231,66.589,-13.794,-12.512
-0.027,-0.266,1.179,63.782,-7.507,-7.751
-0.018,-0.236,1.106,58.716,-0.244,-2.258
-0.000,-0.182,1.001,53.040,8.850,2.686
0.012,-0.114,0.930,41.382,14.587,6.836
0.017,-0.062,0.897,27.893,16.357,8.057
0.046,-0.046,0.865,16.235,18.555,5.981
0.063,-0.058,0.819,11.841,17.395,4.333
0.068,-0.036,0.788,6.409,11.841,5.066
0.052,0.009,0.824,-3.662,2.930,5.981
0.045,0.043,0.896,-14.221,-4.272,4.089
0.028,0.030,0.951,-15.198,-7.996,0.305
0.016,0.017,0.980,-13.184,-9.216,-1.892
0.004,0.036,1.013,-14.954,-10.742,-2.319
0.005,0.081,1.068,-20.508,-11.597,-2.441
0.003,0.120,1.105,-16.724,-8.179,-3.418
0.007,0.121,1.094,-7.935,-1.770,-5.798
0.011,0.105,1.059,-3.235,5.554,-7.629
0.015,0.097,1.016,-1.892,11.414,-6.958
0.021,0.115,0.981,-1.343,14.954,-4.333
0.009,0.142,0.943,-1.404,17.944,-2.075

-0.262,-0.321,2.104,48.218,-46.265,30.945
-0.223,-0.490,2.018,46.509,-44.434,10.193
-0.175,-0.559,1.918,48.401,-42.969,-4.272
-0.096,-0.711,1.827,43.701,-40.527,-16.174
-0.033,-0.905,1.828,40.283,-36.621,-23.010
0.017,-1.047,1.803,30.762,-29.419,-17.944
0.043,-1.036,1.740,10.925,-22.705,-1.465
0.047,-0.997,1.692,-15.442,-15.991,16.174
0.044,-0.838,1.550,-27.527,-9.216,28.503
0.013,-0.699,1.363,-36.133,-6.226,29.236
0.028,-0.634,1.333,-41.138,-8.911,17.029
0.035,-0.680,1.253,-47.302,-13.367,-2.686
0.140,-0.690,1.201,-60.669,-15.930,-21.179
0.248,-0.690,1.152,-65.125,-20.447,-37.231
0.356,-0.707,1.146,-57.495,-25.574,-49.316
0.452,-0.725,1.136,-52.979,-28.992,-56.641
0.545,-0.704,1.013,-44.189,-25.818,-58.838
0.615,-0.664,0.785,-31.921,-20.813,-57.251
0.628,-0.604,0.664,-17.090,-24.231,-55.115
0.572,-0.626,0.574,-2.747,-30.457,-56.091
0.532,-0.646,0.512,-13.672,-35.034,-59.998
0.458,-0.649,0.480,-23.010,-44.006,-62.988
0.419,-0.629,0.496,-32.471,-49.438,-66.345
0.361,-0.607,0.496,-36.804,-50.598,-69.885
0.356,-0.576,0.447,-35.217,-45.227,-73.608
0.328,-0.570,0.345,-25.330,-35.889,-75.928
0.290,-0.594,0.228,-13.062,-26.733,-76.538
0.259,-0.609,0.010,-12.207,-18.677,-73.303
0.257,-0.565,-0.163,-30.823,-16.235,-65.613
0.232,-0.420,-0.170,-41.809,-26.978,-54.565
0.199,-0.249,-0.084,-41.138,-37.292,-48.523
0.162,-0.161,-0.037,-35.889,-39.673,-51.575
0.134,-0.142,-0.077,-29.297,-35.583,-59.143
0.085,-0.151,-0.147,-23.254,-32.166,-66.040
0.074,-0.098,-0.185,-17.456,-31.921,-70.251
0.086,-0.025,-0.195,-10.010,-33.264,-74.585
0.091,0.048,-0.232,2.014,-34.607,-80.017
0.099,0.095,-0.259,15.381,-37.964,-85.144
0.110,0.098,-0.177,26.733,-46.448,-90.393
0.145,0.064,0.011,34.302,-54.749,-94.116
0.196,0.000,0.216,34.668,-55.603,-93.994
0.221,-0.055,0.383,31.982,-46.936,-87.952
0.209,-0.050,0.501,25.024,-30.090,-75.806
0.181,0.030,0.544,14.526,-6.592,-60.303
0.120,0.187,0.448,8.118,21.179,-46.570
0.099,0.399,0.230,6.470,46.265,-39.124
0.087,0.583,0.011,11.963,57.007,-40.100
0.074,0.690,-0.075,23.315,50.903,-47.791
0.071,0.726,-0.004,39.978,37.415,-58.655
0.140,0.772,0.091,55.115,26.184,-68.726
0.158,0.756,0.325,66.528,15.076,-74.585
0.198,0.654,0.639,64.636,9.460,-76.111
0.268,0.566,0.863,52.856,19.531,-68.665
0.334,0.616,0.941,38.574,36.682,-49.011
0.340,0.656,0.851,19.104,55.237,-24.841
0.325,0.778,0.830,1.892,64.026,-1.465
0.251,0.865,0.748,0.671,66.284,18.555
0.120,0.855,0.767,-12.085,57.251,33.325
0.120,0.858,0.825,-48.035,51.086,40.222
0.097,0.853,0.882,-62.805,42.053,46.753
0.065,0.913,0.993,-71.106,29.663,51.758
0.092,1.069,1.428,-77.942,14.648,50.903
-0.001,1.197,1.749,-57.190,12.329,38.025
0.023,1.049,1.761,-23.315,37.354,13.062
0.083,0.760,1.647,4.578,57.007,-5.676
0.182,0.609,1.560,4.639,64.026,-5.432
0.237,0.485,1.524,-11.658,66.895,6.775
0.199,0.406,1.561,-18.066,65.552,26.794
0.131,0.397,1.524,-15.320,67.871,49.744
0.064,0.381,1.423,-2.869,74.158,65.369
-0.008,0.387,1.355,10.193,67.261,75.317
-0.076,0.376,1.382,11.169,48.584,78.857
-0.137,0.337,1.485,6.836,29.785,74.707
-0.151,0.290,1.559,1.892,19.043,66.589
-0.137,0.222,1.573,-2.686,15.381,57.434
-0.109,0.137,1.567,-7.141,13.367,48.401
-0.078,0.059,1.581,-14.160,9.338,40.100
-0.006,-0.011,1.572,-23.621,5.188,32.532
0.042,-0.106,1.587,-25.208,0.732,28.381
0.054,-0.177,1.605,-16.418,-1.221,28.137
0.036,-0.215,1.616,-4.028,-2.502,32.654
0.010,-0.183,1.601,1.648,0.488,37.537
0.006,-0.128,1.500,10.193,6.775,39.978
0.042,-0.105,1.318,25.208,15.076,37.781
0.108,-0.124,1.148,38.208,16.968,32.593
0.199,-0.166,1.050,41.931,11.353,28.259
0.274,-0.207,1.021,43.762,3.479,25.818
0.339,-0.234,1.016,48.462,-2.808,25.146
0.358,-0.271,1.045,55.054,-8.789,24.963
0.355,-0.320,1.079,57.800,-14.709,24.719
0.324,-0.359,1.129,52.856,-19.287,25.757
0.287,-0.372,1.164,44.678,-19.470,27.588
0.255,-0.327,1.157,38.147,-13.062,28.381
0.229,-0.309,1.050,34.363,-3.662,27.283
0.201,-0.310,0.969,31.433,2.380,24.475
0.200,-0.301,0.907,21.851,5.737,22.278
0.197,-0.270,0.859,12.695,7.324,21.240
0.204,-0.229,0.800,7.996,8.667,20.325
0.193,-0.197,0.756,6.836,7.996,18.433
0.185,-0.181,0.743,5.676,4.883,15.137
0.157,-0.175,0.770,4.395,-0.488,11.475
0.137,-0.164,0.836,1.953,-6.470,7.996
0.123,-0.157,0.921,-4.456,-10.803,3.967
0.114,-0.148,0.964,-8.057,-10.376,1.221
0.109,-0.134,0.973,-8.972,-6.958,-1.099
0.120,-0.111,0.968,-13.123,-3.540,-2.441
0.133,-0.090,0.960,-15.747,-0.244,-3.662
0.147,-0.066,0.955,-15.259,2.075,-4.639
0.151,-0.052,0.965,-16.357,2.319,-5.188
0.164,-0.045,0.971,-18.799,2.869,-5.249
0.172,-0.044,0.958,-18.066,3.967,-4.578
0.168,-0.030,0.948,-15.991,3.845,-2.991
0.149,-0.003,0.952,-17.578,2.441,-1.465
0.139,0.028,0.957,-19.836,0.793,-0.793
0.118,0.027,0.978,-18.555,-1.221,-1.770
0.102,0.010,0.991,-16.602,-1.709,-2.625
0.083,-0.007,0.960,-15.137,0.793,-2.686
0.077,0.014,0.915,-16.541,3.906,-1.526
0.068,0.047,0.894,-18.677,2.441,-0.366

0.408,0.889,1.400,-26.794,45.227,61.584
0.425,0.941,1.471,-48.706,53.528,67.688
0.425,0.915,1.461,-48.401,60.059,68.970
0.411,0.826,1.432,-38.025,57.373,67.749
0.382,0.700,1.448,-34.302,46.204,66.528
0.308,0.543,1.508,-30.762,29.846,66.101
0.157,0.389,1.606,-22.156,12.756,65.063
-0.037,0.248,1.742,-17.944,-4.089,62.500
-0.207,0.115,1.829,-16.113,-17.944,56.519
-0.304,-0.002,1.833,-15.564,-26.917,47.363
-0.371,-0.094,1.776,-7.507,-33.997,36.255
-0.484,-0.174,1.823,0.793,-47.852,23.193
-0.538,-0.194,2.024,-4.883,-65.186,6.958
-0.524,-0.208,2.217,-10.010,-68.237,-14.893
-0.521,-0.365,2.194,-4.150,-55.115,-45.532
-0.589,-0.609,2.114,5.859,-39.001,-76.904
-0.686,-0.884,2.086,12.207,-26.306,-98.267
-0.762,-1.099,2.005,10.376,-12.085,-106.323
-0.747,-1.318,1.820,1.221,2.686,-104.187
-0.692,-1.428,1.708,-13.977,7.812,-89.905
-0.578,-1.451,1.716,-44.373,4.211,-68.420
-0.415,-1.274,1.814,-77.637,-0.366,-44.373
-0.250,-1.042,1.805,-98.083,5.798,-28.137
-0.103,-0.891,1.644,-101.379,19.348,-26.062
0.012,-0.860,1.418,-94.055,28.809,-33.142
0.103,-0.896,1.291,-94.604,26.123,-41.809
0.134,-0.921,1.250,-105.286,16.785,-46.143
0.153,-0.900,1.199,-111.816,9.033,-46.448
0.150,-0.882,1.110,-108.398,4.089,-46.509
0.147,-0.872,0.993,-103.943,-2.502,-47.852
0.141,-0.853,0.943,-103.333,-15.198,-49.377
0.176,-0.793,0.884,-110.718,-28.687,-51.331
0.207,-0.746,0.822,-111.694,-39.001,-55.603
0.272,-0.741,0.734,-108.276,-47.546,-61.707
0.292,-0.763,0.679,-103.149,-54.077,-66.284
0.336,-0.697,0.742,-107.605,-58.777,-66.406
0.367,-0.693,0.853,-100.708,-54.199,-67.261
0.365,-0.721,0.822,-72.632,-29.358,-66.467
0.361,-0.747,0.636,-26.550,4.761,-60.730
0.325,-0.751,0.344,25.818,39.185,-49.500
0.290,-0.688,0.043,57.983,64.331,-33.630
0.287,-0.574,-0.238,69.031,73.975,-17.822
0.276,-0.460,-0.437,62.988,68.420,-6.104
0.265,-0.358,-0.520,40.710,50.659,-0.427
0.235,-0.248,-0.522,17.090,26.855,2.258
0.205,-0.135,-0.498,5.005,4.150,1.831
0.178,-0.047,-0.468,4.150,-14.648,-2.136
0.152,0.002,-0.460,2.014,-28.748,-9.338
0.194,0.045,-0.440,-3.845,-39.124,-17.639
0.211,0.069,-0.358,-6.287,-52.124,-23.987
0.231,0.067,-0.222,-6.775,-58.716,-26.672
0.260,0.064,-0.097,2.930,-56.702,-24.780
0.243,0.094,-0.019,23.010,-48.096,-19.592
0.183,0.132,0.016,49.683,-36.926,-14.587
0.128,0.168,0.027,74.829,-26.306,-11.475
0.034,0.212,0.016,90.820,-16.602,-10.010
-0.021,0.334,-0.039,95.886,-7.202,-8.240
-0.012,0.505,-0.116,98.450,-0.916,-8.179
0.028,0.635,-0.163,95.520,0.793,-14.038
0.093,0.854,-0.114,80.200,-3.723,-26.672
0.146,0.996,0.094,64.331,-14.954,-48.035
0.185,0.847,0.320,60.181,-19.592,-75.500
0.230,0.487,0.417,57.617,-10.620,-92.163
0.303,0.192,0.437,31.372,5.127,-85.815
0.377,0.088,0.527,-11.353,14.404,-55.542
0.472,0.236,0.550,-45.166,18.494,-13.184
0.464,0.420,0.610,-78.796,11.414,28.870
0.377,0.585,0.797,-134.888,-7.263,61.279
0.291,0.811,1.068,-185.059,-21.790,84.167
0.186,1.121,1.326,-214.355,-19.958,98.145
0.120,1.397,1.580,-211.426,-17.090,97.961
0.085,1.561,1.743,-185.181,2.625,77.209
0.049,1.576,1.761,-121.155,30.884,47.180
-0.008,1.396,1.743,-43.274,58.533,16.541
-0.067,1.153,1.418,15.198,84.839,-3.723
-0.140,0.922,1.208,36.133,92.834,-9.033
-0.168,0.820,1.088,34.729,88.074,-0.916
-0.154,0.855,1.047,20.203,77.698,14.893
-0.104,0.951,1.173,10.925,65.125,29.175
-0.073,0.995,1.209,14.526,53.223,36.499
-0.026,0.959,1.279,16.968,44.312,34.424
-0.006,0.834,1.371,26.550,35.095,29.785
-0.005,0.683,1.442,29.297,28.442,26.733
-0.045,0.525,1.502,26.428,24.109,27.710
-0.100,0.394,1.560,19.958,23.437,31.799
-0.103,0.329,1.553,10.864,27.649,38.635
-0.085,0.298,1.452,6.042,35.583,46.143
-0.056,0.294,1.319,5.493,40.161,52.124
-0.018,0.277,1.197,3.967,39.856,53.406
0.030,0.224,1.109,8.118,33.325,51.086
0.063,0.146,1.083,16.846,20.752,47.974
0.074,0.066,1.125,25.818,4.028,45.654
0.082,0.016,1.201,31.006,-9.827,44.556
0.082,0.014,1.274,31.738,-20.264,44.861
0.076,0.026,1.359,33.875,-27.588,44.495
0.094,0.014,1.411,34.363,-26.184,39.673
0.140,-0.039,1.378,36.987,-16.785,31.433
0.197,-0.132,1.297,41.992,-7.385,23.254
0.238,-0.247,1.238,47.363,-3.235,17.883
0.242,-0.360,1.211,51.208,-2.991,17.029
0.233,-0.415,1.185,51.086,-3.845,21.118
0.206,-0.401,1.176,48.157,-5.249,26.550
0.146,-0.366,1.128,44.250,-6.409,29.236
0.090,-0.333,1.083,39.856,-8.179,27.161
0.058,-0.335,1.048,36.865,-10.986,22.156
0.028,-0.342,1.055,30.212,-13.306,17.029
0.025,-0.315,1.069,18.005,-12.817,13.916
0.050,-0.251,1.077,7.385,-8.972,12.024
0.072,-0.198,1.087,2.197,-3.235,9.216
0.116,-0.146,1.070,-0.549,5.859,5.493
0.153,-0.126,1.006,1.587,15.869,1.160
0.170,-0.118,0.924,2.686,23.071,-2.014
0.186,-0.089,0.871,-0.610,22.888,-2.625
0.179,-0.046,0.883,-2.930,16.235,-2.258
0.164,-0.013,0.934,-6.531,8.911,-2.380
0.150,0.008,0.976,-9.583,4.395,-3.052
0.138,0.014,0.989,-8.850,3.174,-3.296
0.131,0.015,0.987,-8.301,2.075,-3.174
0.120,0.035,0.987,-11.230,-0.488,-2.075

0.438,1.353,1.033,6.226,4.944,-12.573
0.525,1.306,1.357,-14.160,0.488,-20.264
0.554,1.177,1.613,-28.992,3.418,-24.109
0.475,1.019,1.790,-39.917,11.536,-23.682
0.346,0.851,1.768,-42.725,23.499,-21.301
0.146,0.644,1.676,-36.133,34.424,-21.606
-0.033,0.349,1.571,-25.635,35.645,-22.278
-0.211,0.102,1.570,-20.203,23.376,-17.944
-0.334,-0.004,1.727,-25.085,5.432,-8.118
-0.406,-0.011,1.924,-30.151,-7.324,0.488
-0.463,-0.002,2.136,-25.818,-15.869,3.479
-0.499,-0.034,2.294,-18.005,-22.095,-2.258
-0.569,-0.166,2.369,-15.381,-26.428,-15.869
-0.673,-0.374,2.418,-19.470,-33.569,-32.898
-0.695,-0.520,2.458,-39.001,-40.588,-46.082
-0.683,-0.612,2.443,-57.922,-39.490,-56.580
-0.650,-0.755,2.327,-58.716,-25.208,-65.613
-0.626,-0.899,2.199,-51.758,-11.597,-68.787
-0.606,-0.968,2.167,-58.594,-5.432,-64.453
-0.534,-0.984,2.178,-73.120,-0.488,-57.922
-0.394,-0.996,2.143,-92.957,10.925,-53.772
-0.194,-1.035,2.025,-113.647,30.334,-51.147
0.022,-1.112,1.796,-122.314,53.223,-48.767
0.221,-1.195,1.535,-123.596,68.726,-42.908
0.379,-1.194,1.301,-121.765,67.871,-30.396
0.490,-1.128,1.159,-121.277,55.847,-16.357
0.526,-1.023,1.022,-119.324,39.551,-5.554
0.473,-0.931,0.870,-104.248,21.179,-1.038
0.381,-0.823,0.684,-90.698,2.441,-2.075
0.333,-0.722,0.625,-87.158,-20.569,-9.583
0.311,-0.691,0.587,-80.688,-40.527,-25.330
0.296,-0.702,0.499,-75.684,-54.810,-43.091
0.283,-0.736,0.412,-68.481,-63.721,-57.373
0.258,-0.802,0.340,-58.411,-69.092,-65.796
0.291,-0.861,0.372,-55.908,-71.838,-67.261
0.302,-0.882,0.406,-44.434,-66.772,-59.265
0.325,-0.826,0.402,-39.551,-50.537,-44.434
0.333,-0.704,0.293,-23.315,-25.696,-26.489
0.350,-0.561,0.110,3.784,-2.747,-10.132
0.380,-0.415,-0.097,29.785,11.841,2.319
0.356,-0.277,-0.265,55.603,12.939,11.719
0.297,-0.143,-0.365,73.914,2.930,16.418
0.255,-0.022,-0.383,78.064,-13.123,16.968
0.217,0.072,-0.323,73.486,-31.250,13.245
0.194,0.115,-0.229,73.975,-45.166,7.324
0.214,0.109,-0.157,82.947,-50.476,1.953
0.201,0.094,-0.112,97.412,-48.706,0.488
0.186,0.131,-0.146,108.093,-41.260,5.737
0.175,0.247,-0.250,108.643,-30.090,15.564
0.146,0.392,-0.350,109.497,-25.513,25.452
0.098,0.560,-0.382,101.379,-31.067,30.579
0.040,0.693,-0.319,85.510,-42.847,27.039
-0.023,0.773,-0.207,69.214,-53.955,16.479
-0.057,0.831,-0.106,55.054,-56.213,5.005
-0.042,0.839,-0.008,48.462,-51.331,-5.554
-0.043,0.781,0.063,56.152,-42.786,-15.381
-0.060,0.727,0.107,66.223,-30.396,-21.423
-0.040,0.674,0.147,65.552,-17.151,-23.560
0.008,0.616,0.226,55.969,-8.606,-22.339
0.089,0.477,0.302,36.072,-6.287,-15.808
0.118,0.366,0.457,10.437,-7.141,-1.404
0.077,0.353,0.670,-13.000,-6.836,22.400
0.075,0.438,0.819,-33.936,-2.319,51.636
0.103,0.668,0.840,-57.861,17.395,78.369
0.082,0.935,0.930,-74.951,17.151,95.398
-0.018,1.186,1.087,-100.708,17.822,93.628
-0.083,1.365,1.279,-98.877,20.569,77.087
-0.090,1.485,1.744,-63.782,45.227,44.617
-0.106,1.284,1.300,31.372,88.379,7.019
-0.154,1.008,0.967,78.003,112.793,-23.132
-0.145,0.807,0.836,85.754,100.281,-38.025
-0.114,0.688,0.985,60.364,67.749,-44.006
-0.135,0.588,1.249,52.063,32.898,-45.288
-0.138,0.518,1.521,46.509,17.273,-43.701
-0.132,0.437,1.703,43.335,15.991,-41.992
-0.112,0.343,1.789,44.983,21.423,-39.001
-0.087,0.238,1.807,44.067,27.771,-34.607
-0.025,0.154,1.818,35.034,30.212,-27.100
0.017,0.094,1.831,19.348,30.823,-18.066
0.051,0.057,1.814,4.395,30.762,-9.033
0.020,0.050,1.794,-5.493,28.992,0.366
-0.042,0.065,1.766,-14.343,24.414,7.385
-0.082,0.060,1.699,-21.912,22.034,9.583
-0.070,0.010,1.590,-25.879,23.560,7.629
-0.021,-0.044,1.456,-28.809,22.827,5.737
-0.001,-0.084,1.384,-31.494,12.146,5.737
0.002,-0.096,1.400,-34.790,-4.456,6.592
0.023,-0.095,1.466,-42.053,-20.386,6.042
0.054,-0.127,1.547,-43.213,-32.349,4.761
0.060,-0.193,1.619,-34.180,-37.598,4.639
0.052,-0.250,1.621,-23.926,-35.645,8.301
0.039,-0.297,1.589,-21.851,-26.489,14.587
0.073,-0.321,1.500,-28.809,-13.367,21.423
0.126,-0.311,1.318,-38.879,-3.845,32.593
0.144,-0.239,1.152,-39.490,1.160,46.997
0.200,-0.065,1.028,-34.851,-6.714,59.998
0.171,0.012,0.980,-34.485,-9.644,56.519
0.138,-0.060,0.924,-13.123,-15.747,43.518
0.104,-0.114,0.918,3.052,-25.146,32.715
0.026,-0.180,0.987,12.390,-34.119,24.048
-0.033,-0.208,1.041,17.700,-37.781,17.822
-0.056,-0.199,1.066,17.822,-35.522,11.536
-0.078,-0.195,1.046,21.851,-28.564,4.028
-0.082,-0.219,1.013,25.513,-23.437,-3.418
-0.063,-0.227,1.005,22.522,-18.921,-9.094
-0.050,-0.212,0.974,17.944,-11.353,-13.916
-0.031,-0.221,0.891,13.489,-2.686,-17.883
0.001,-0.240,0.832,11.536,1.831,-19.226
0.048,-0.238,0.782,6.897,2.441,-17.212
0.074,-0.214,0.797,0.183,-0.671,-11.658
0.085,-0.175,0.823,-4.883,-0.305,-6.165
0.090,-0.139,0.846,-5.432,0.610,-1.892
0.088,-0.073,0.860,-8.057,1.831,2.136
0.082,-0.007,0.876,-9.521,1.770,4.028
0.062,0.026,0.905,-9.644,0.366,2.197
0.043,0.019,0.946,-9.094,-0.183,-1.343
0.025,0.004,0.973,-8.728,0.916,-3.906
0.011,-0.011,0.986,-9.644,1.526,-4.761
-0.002,-0.001,0.997,-13.367,3.235,-4.028

0.139,0.491,1.895,14.587,47.302,66.406
0.076,0.365,2.007,-2.869,44.861,64.514
0.009,0.257,2.116,-12.512,40.833,63.965
-0.011,0.170,2.170,-20.264,37.964,61.523
-0.020,0.051,2.117,-24.658,38.025,56.030
-0.092,-0.127,2.045,-21.118,33.997,49.927
-0.227,-0.252,2.146,-12.756,21.667,45.349
-0.441,-0.315,2.415,-5.371,7.629,39.124
-0.503,-0.391,2.526,-20.325,7.812,24.231
-0.438,-0.457,2.458,-34.729,19.348,4.517
-0.295,-0.521,2.354,-49.072,26.855,-15.137
-0.128,-0.582,2.204,-75.989,31.128,-32.837
0.061,-0.742,1.996,-88.440,35.645,-47.546
0.238,-0.861,1.762,-83.496,38.879,-51.636
0.327,-0.861,1.635,-73.425,36.072,-42.725
0.380,-0.804,1.591,-68.054,27.405,-31.128
0.406,-0.791,1.479,-63.293,23.987,-23.315
0.391,-0.825,1.288,-64.209,19.592,-18.494
0.368,-0.779,1.427,-71.167,3.784,-13.611
0.291,-0.707,1.575,-72.144,-5.554,-15.137
0.238,-0.751,1.523,-80.261,4.578,-27.771
0.269,-0.867,1.378,-98.083,19.043,-43.762
0.366,-0.957,1.136,-120.300,31.738,-55.725
0.511,-1.005,0.774,-138.306,42.236,-60.242
0.632,-0.978,0.555,-147.339,37.415,-56.824
0.626,-1.003,0.363,-149.475,19.470,-48.645
0.529,-1.004,0.358,-139.221,-4.761,-36.194
0.409,-0.945,0.442,-124.634,-22.400,-22.461
0.367,-0.853,0.418,-120.422,-29.480,-12.512
0.380,-0.748,0.279,-118.530,-29.663,-9.033
0.376,-0.694,0.160,-114.563,-31.311,-12.878
0.426,-0.651,0.132,-116.028,-37.598,-20.752
0.484,-0.664,0.072,-114.014,-41.992,-27.954
0.524,-0.686,0.065,-108.337,-50.598,-31.189
0.567,-0.702,0.024,-101.929,-56.091,-28.564
0.584,-0.665,-0.007,-93.811,-57.739,-20.508
0.542,-0.588,0.033,-81.482,-58.899,-10.681
0.504,-0.526,0.088,-54.138,-55.420,-2.991
0.438,-0.439,0.052,-19.958,-43.579,4.700
0.328,-0.316,-0.084,10.498,-29.724,10.742
0.296,-0.233,-0.278,27.893,-20.996,12.085
0.320,-0.130,-0.503,22.644,-18.555,11.963
0.277,-0.042,-0.648,8.484,-25.085,9.949
0.240,0.017,-0.693,-12.817,-38.391,5.432
0.224,0.077,-0.624,-37.842,-55.664,0.305
0.178,0.088,-0.470,-48.523,-73.242,-4.883
0.115,0.077,-0.321,-45.776,-82.825,-8.911
0.070,0.103,-0.221,-38.818,-82.336,-8.972
0.024,0.178,-0.169,-23.560,-75.989,-5.798
-0.027,0.276,-0.151,-0.305,-66.833,-3.418
-0.122,0.371,-0.125,19.531,-58.044,-3.540
-0.207,0.461,-0.094,27.710,-48.706,-7.141
-0.255,0.540,-0.033,22.888,-39.124,-12.939
-0.256,0.633,0.047,11.230,-29.602,-19.653
-0.206,0.741,0.112,-3.296,-18.616,-25.940
-0.079,0.848,0.155,-18.921,-6.958,-30.518
0.073,1.005,0.410,-27.588,0.610,-31.555
0.111,1.117,0.681,10.559,17.029,-29.297
0.210,1.095,0.476,41.443,58.044,-28.137
0.341,1.179,0.529,37.476,76.416,-20.996
0.422,1.226,0.633,34.973,82.703,-10.559
0.538,1.242,0.581,37.354,91.125,1.160
0.491,1.332,0.629,49.316,89.172,20.020
0.351,1.459,0.796,58.044,68.787,35.095
0.142,1.524,1.105,67.078,51.941,38.025
0.060,1.445,1.198,69.824,52.002,24.170
0.073,1.325,1.191,73.181,58.533,10.437
0.102,1.251,1.247,74.158,60.059,5.310
0.114,1.214,1.266,74.890,62.866,7.019
0.182,1.244,1.195,76.233,71.350,12.634
0.284,1.239,1.066,84.473,74.829,18.066
0.337,1.090,1.056,103.210,63.843,20.569
0.310,0.868,1.222,123.413,45.593,24.048
0.255,0.692,1.414,135.742,33.630,31.311
0.238,0.574,1.529,135.376,28.748,40.955
0.248,0.467,1.607,126.953,24.292,50.171
0.276,0.407,1.676,112.000,20.081,58.350
0.325,0.354,1.598,92.407,19.409,63.660
0.341,0.230,1.474,73.853,15.503,65.552
0.328,0.096,1.395,61.035,5.859,66.223
0.278,0.026,1.508,53.406,-5.798,67.993
0.224,-0.036,1.722,54.260,-10.864,65.735
0.186,-0.179,1.701,57.922,-3.601,56.824
0.136,-0.286,1.611,53.711,1.648,50.232
0.053,-0.318,1.631,50.171,0.061,47.485
0.057,-0.330,1.614,55.847,0.366,43.396
0.121,-0.319,1.477,56.702,5.981,40.039
0.211,-0.285,1.311,46.509,10.742,36.743
0.292,-0.207,1.153,37.598,7.812,33.691
0.348,-0.188,1.018,23.437,-0.061,28.320
0.410,-0.240,0.900,29.663,-10.193,18.616
0.415,-0.258,0.897,48.096,-25.024,12.512
0.406,-0.351,0.951,45.288,-38.757,7.507
0.371,-0.345,0.932,62.744,-46.509,3.418
0.329,-0.239,0.995,65.002,-52.795,-0.854
0.257,-0.185,0.999,38.757,-53.284,-10.864
0.234,-0.206,0.964,31.799,-51.270,-30.579
0.213,-0.298,0.935,30.884,-49.133,-52.124
0.206,-0.415,0.957,21.729,-48.218,-68.237
0.175,-0.556,0.980,6.836,-44.189,-75.073
0.181,-0.649,0.955,2.380,-35.522,-72.876
0.175,-0.705,0.900,-8.362,-25.146,-60.486
0.166,-0.688,0.868,-15.137,-17.822,-42.419
0.178,-0.528,0.846,-22.583,-12.817,-22.522
0.149,-0.383,0.773,-28.687,-9.277,-9.155
0.140,-0.094,0.833,-43.762,-8.423,-5.676
0.096,-0.062,0.827,-56.396,-9.216,-18.860
0.072,-0.098,0.803,-66.040,-9.949,-35.522
0.052,-0.214,0.726,-87.402,-16.296,-46.936
0.068,-0.192,0.776,-102.234,-27.222,-47.485
0.101,-0.233,0.813,-112.427,-37.109,-46.936
0.132,-0.249,0.880,-101.196,-38.635,-43.091
0.156,-0.209,0.994,-92.407,-38.696,-33.936
0.160,-0.141,1.051,-75.256,-35.645,-22.522
0.155,-0.042,1.062,-75.439,-29.419,-12.756
0.138,0.066,1.048,-73.181,-24.048,-6.287
0.122,0.158,1.033,-67.261,-21.912,-3.723
0.114,0.220,1.029,-64.697,-21.179,-6.226
0.061,0.251,1.012,-63.660,-20.081,-12.817

0.421,1.153,1.143,14.160,62.561,50.903
0.407,1.083,1.381,-4.150,75.195,59.570
0.323,1.080,1.450,-20.691,91.797,69.946
0.251,1.087,1.495,-39.917,97.900,76.904
0.194,1.006,1.446,-55.542,92.957,73.914
0.107,0.886,1.492,-53.162,83.862,60.608
0.099,0.902,1.671,-46.631,72.693,53.406
0.156,0.937,1.875,-42.603,66.589,54.260
0.098,0.979,1.988,-45.532,61.401,60.181
0.133,0.952,1.967,-46.509,49.805,51.819
0.255,0.901,1.946,-52.612,35.034,37.476
0.329,0.827,1.911,-55.359,23.132,31.677
0.439,0.765,1.767,-47.119,16.785,34.546
0.489,0.691,1.651,-33.203,6.470,44.861
0.518,0.668,1.572,-25.024,-3.845,56.458
0.528,0.595,1.450,-17.334,-16.541,65.979
0.550,0.500,1.452,-5.981,-33.813,69.702
0.542,0.341,1.421,6.775,-47.546,68.970
0.577,0.234,1.413,3.662,-56.885,68.787
0.533,0.103,1.469,1.831,-63.171,66.650
0.559,0.042,1.455,-6.165,-61.829,62.683
0.552,-0.090,1.437,-14.465,-58.594,55.969
0.548,-0.187,1.343,-22.583,-50.537,49.438
0.528,-0.243,1.202,-36.011,-46.082,46.021
0.507,-0.300,1.083,-48.035,-54.016,41.016
0.520,-0.350,0.951,-53.528,-67.810,34.729
0.508,-0.399,0.820,-48.828,-83.130,28.870
0.588,-0.400,0.688,-39.246,-99.365,25.635
0.594,-0.404,0.517,-29.297,-114.258,23.254
0.575,-0.399,0.452,-31.433,-125.122,18.616
0.575,-0.415,0.431,-21.545,-130.310,13.367
0.562,-0.370,0.418,-16.663,-117.493,9.827
0.534,-0.382,0.234,1.648,-92.163,6.287
0.474,-0.110,0.147,9.460,-65.063,4.211
0.466,-0.120,-0.098,47.241,-47.424,1.587
0.442,-0.219,-0.397,62.073,-45.959,-10.071
0.414,-0.392,-0.606,26.672,-62.988,-17.822
0.414,-0.151,-0.517,-8.301,-91.187,-14.465
0.344,-0.013,-0.428,-2.136,-112.793,-6.531
0.252,-0.029,-0.375,15.869,-123.901,-5.249
0.194,-0.018,-0.353,25.452,-127.319,-6.104
0.143,0.030,-0.322,28.992,-127.380,-5.798
0.110,0.103,-0.221,28.931,-124.268,-5.371
0.086,0.105,-0.160,24.475,-111.084,-8.728
0.082,0.160,-0.160,18.372,-87.769,-13.550
0.073,0.235,-0.154,15.381,-67.444,-16.541
0.047,0.297,-0.150,16.785,-51.208,-20.569
0.017,0.361,-0.153,21.118,-37.476,-24.719
-0.003,0.452,-0.200,27.222,-26.794,-29.053
-0.040,0.526,-0.227,35.706,-23.193,-33.813
-0.075,0.585,-0.183,44.800,-26.062,-38.879
-0.112,0.619,-0.051,49.622,-28.687,-45.471
-0.119,0.660,0.111,45.288,-22.400,-53.955
-0.091,0.714,0.234,31.250,-7.141,-61.890
-0.039,0.757,0.386,11.169,13.245,-68.115
-0.002,0.762,0.404,-3.052,41.931,-70.313
0.052,0.795,0.288,-13.550,73.547,-66.467
0.053,0.906,0.334,-15.320,89.050,-59.204
0.057,1.024,0.391,-9.949,97.351,-52.124
0.020,1.101,0.454,-2.197,100.830,-48.584
-0.013,1.188,0.510,5.127,102.661,-45.898
0.016,1.288,0.594,11.536,102.844,-42.969
-0.068,1.366,0.707,14.954,101.929,-39.795
0.108,1.431,0.606,11.841,109.375,-41.504
0.164,1.656,0.766,19.958,87.097,-33.569
0.108,1.358,0.773,6.042,59.326,-46.814
0.240,1.342,0.741,0.488,70.679,-42.786
0.345,1.383,0.721,4.395,86.182,-25.452
0.480,1.396,0.736,7.568,92.896,-13.367
0.453,1.313,0.747,21.301,92.712,-7.141
0.429,1.298,0.854,33.569,87.097,1.038
0.419,1.265,0.979,42.786,81.299,11.414
0.405,1.214,1.065,54.199,74.646,15.808
0.371,1.181,1.129,62.500,62.012,22.217
0.319,1.122,1.174,68.115,42.603,26.062
0.290,1.069,1.202,69.702,24.658,27.771
0.285,0.970,1.176,70.435,13.611,27.466
0.301,0.904,1.177,70.007,11.597,33.447
0.358,0.853,1.148,75.745,15.930,44.800
0.449,0.687,1.110,100.769,16.357,54.077
0.465,0.519,1.137,132.446,9.094,58.044
0.438,0.415,1.291,153.320,0.061,61.218
0.357,0.256,1.463,174.988,-7.935,67.444
0.124,-0.070,1.548,175.964,-14.709,70.862
0.000,-0.109,1.734,131.836,-19.409,80.750
-0.094,-0.085,1.718,98.572,-26.794,83.008
-0.159,-0.128,1.601,84.045,-31.250,67.993
-0.128,-0.198,1.389,72.937,-28.748,49.072
-0.069,-0.223,1.263,45.288,-21.301,33.081
0.016,-0.196,1.118,29.419,-17.578,24.292
0.079,-0.112,1.067,13.000,-17.212,19.104
0.042,-0.128,1.006,13.123,-23.560,11.780
0.063,-0.257,0.988,11.963,-26.733,10.010
0.142,-0.242,0.955,2.502,-25.146,21.667
0.286,-0.206,0.941,-6.104,-24.597,43.518
0.251,0.050,0.924,-8.118,-31.616,66.711
0.161,-0.013,0.926,4.761,-34.973,61.646
0.168,-0.008,0.925,15.076,-27.649,49.988
0.176,0.051,0.913,15.625,-25.330,42.847
0.182,0.067,0.896,14.038,-21.912,27.039
0.185,0.085,0.851,20.020,-17.151,10.742
0.197,0.102,0.824,20.203,-19.165,3.723
0.204,0.134,0.831,16.663,-23.071,2.625
0.181,0.143,0.803,18.555,-22.888,3.235
0.166,0.158,0.824,22.156,-21.423,3.723
0.118,0.145,0.834,27.527,-19.592,2.319
0.065,0.154,0.826,32.654,-15.076,-2.258
0.016,0.178,0.867,32.959,-13.062,-10.193
0.004,0.167,0.943,35.889,-10.254,-22.217
-0.022,0.083,0.934,42.908,-1.038,-34.058
-0.012,0.191,0.912,39.978,9.277,-37.842
0.022,0.167,0.874,24.109,17.029,-43.701
0.075,0.176,0.900,10.803,20.630,-45.654
0.172,0.211,0.893,0.061,26.978,-44.556
0.147,0.292,0.868,-7.263,37.842,-44.861
0.116,0.247,0.854,-12.024,49.500,-50.232
0.089,0.202,0.813,-10.315,52.429,-50.049
0.085,0.139,0.776,4.272,33.386,-38.391
0.076,0.221,0.837,17.395,2.075,-20.996

-0.209,-0.767,2.091,16.418,-3.052,142.212
-0.208,-0.916,2.165,8.179,-10.071,133.728
-0.186,-0.929,2.138,-4.639,-14.587,127.197
-0.169,-0.972,2.104,-17.212,-13.611,119.934
-0.036,-0.988,1.967,-39.368,-3.052,108.337
0.081,-0.893,1.737,-58.411,11.169,99.243
0.173,-0.823,1.639,-63.721,14.038,87.646
0.291,-0.766,1.599,-65.247,5.188,69.824
0.426,-0.894,1.519,-61.951,-4.883,49.805
0.537,-0.840,1.421,-63.049,-14.954,42.236
0.617,-0.823,1.309,-62.683,-25.330,39.001
0.638,-0.826,1.227,-56.091,-36.255,34.424
0.646,-0.901,1.162,-49.377,-48.218,28.198
0.653,-0.902,1.164,-47.241,-56.824,22.644
0.630,-0.899,1.137,-50.659,-60.974,16.235
0.583,-0.880,1.001,-59.998,-62.683,9.338
0.499,-0.865,0.845,-66.833,-66.284,1.770
0.412,-0.811,0.672,-70.251,-70.068,-7.874
0.380,-0.781,0.523,-69.702,-78.979,-21.118
0.372,-0.766,0.411,-64.514,-91.064,-36.865
0.355,-0.758,0.362,-56.580,-104.187,-51.453
0.324,-0.726,0.339,-48.828,-115.417,-62.683
0.303,-0.698,0.302,-43.396,-122.498,-71.960
0.278,-0.657,0.243,-43.274,-124.023,-78.979
0.203,-0.606,0.188,-49.316,-118.347,-85.388
0.232,-0.502,0.027,-60.303,-104.614,-90.393
0.274,-0.419,-0.074,-67.688,-93.689,-92.834
0.298,-0.318,-0.226,-69.641,-87.280,-91.064
0.332,-0.216,-0.383,-65.857,-78.430,-86.060
0.315,-0.145,-0.407,-53.223,-73.181,-81.360
0.222,-0.089,-0.337,-34.668,-70.374,-78.308
0.121,-0.076,-0.294,-20.752,-66.650,-79.529
0.055,-0.038,-0.258,-12.390,-63.416,-83.130
-0.005,-0.030,-0.226,-4.517,-60.974,-87.952
-0.021,0.008,-0.160,2.441,-61.279,-92.957
0.003,0.069,-0.098,4.822,-61.340,-96.008
0.039,0.069,-0.035,7.996,-54.321,-94.910
0.057,0.174,-0.028,5.432,-40.894,-94.421
0.056,0.186,-0.006,4.150,-25.879,-94.971
0.123,0.341,-0.046,7.080,-11.475,-92.163
0.105,0.227,-0.055,4.883,-3.357,-91.187
0.087,0.418,0.130,-9.521,-4.272,-83.191
0.082,0.543,0.269,-9.949,3.052,-81.116
0.060,0.658,0.433,0.854,15.869,-84.106
0.055,0.630,0.341,9.583,37.415,-93.140
0.084,0.709,0.474,10.864,48.584,-96.741
0.177,0.746,0.540,6.836,57.312,-95.032
0.246,0.842,0.643,-0.366,61.890,-89.661
0.326,0.915,0.615,0.671,65.002,-91.370
0.267,0.941,0.712,22.339,50.049,-97.900
0.255,0.874,0.781,69.885,27.039,-109.070
0.370,0.896,0.863,71.838,30.396,-103.149
0.313,1.039,0.994,19.104,59.875,-65.918
0.165,0.999,1.039,11.902,89.355,-38.208
0.090,0.919,1.031,14.954,106.628,-23.987
0.074,0.995,1.079,5.127,111.023,-8.850
0.105,0.968,1.140,2.625,108.032,-5.066
0.099,0.957,1.281,7.263,103.882,-6.104
0.172,0.891,1.407,10.254,99.548,-4.211
0.241,0.866,1.596,12.268,88.684,4.333
0.198,0.793,1.737,6.042,76.538,18.005
0.163,0.765,1.696,-7.019,76.355,33.752
0.077,0.754,1.563,-19.226,83.252,50.293
0.028,0.812,1.358,-25.818,88.318,63.782
0.020,0.857,1.187,-18.921,89.294,72.266
0.043,0.885,1.092,-3.479,80.688,75.989
0.082,0.787,1.068,19.104,63.599,77.637
0.099,0.690,1.145,46.326,44.983,81.604
0.106,0.576,1.274,67.566,26.794,87.585
0.103,0.449,1.407,79.956,12.268,93.506
0.073,0.324,1.509,83.313,3.052,100.220
0.026,0.212,1.572,80.139,0.183,105.469
-0.021,0.055,1.563,72.815,3.174,106.445
-0.053,-0.051,1.498,61.279,8.667,105.103
-0.052,-0.128,1.394,52.185,12.634,101.379
-0.023,-0.185,1.290,48.340,13.672,95.825
-0.001,-0.224,1.213,50.476,13.306,90.088
0.022,-0.273,1.159,54.749,11.475,83.069
0.057,-0.332,1.134,58.777,9.766,76.599
0.089,-0.358,1.150,63.843,8.057,73.425
0.092,-0.404,1.174,64.514,2.808,71.960
0.082,-0.445,1.206,60.547,-1.099,70.618
0.047,-0.467,1.264,51.514,-1.587,67.932
0.039,-0.505,1.277,39.734,3.052,61.829
0.042,-0.535,1.224,25.024,9.216,53.833
0.051,-0.535,1.136,13.306,12.329,45.776
0.051,-0.532,1.031,7.507,11.658,35.889
0.060,-0.506,0.980,7.507,7.629,23.376
0.054,-0.440,0.987,9.949,0.427,9.399
0.142,-0.458,0.948,11.047,-6.958,-4.944
0.128,-0.393,0.957,14.771,-14.343,-13.550
0.137,-0.355,0.961,13.977,-18.982,-20.996
0.152,-0.311,0.977,10.620,-18.372,-28.076
0.151,-0.299,0.975,6.714,-15.808,-32.349
0.179,-0.203,0.947,-0.732,-11.230,-32.349
0.214,-0.136,0.905,-8.301,-5.554,-33.630
0.250,-0.099,0.865,-14.160,-1.770,-34.363
0.277,-0.051,0.838,-16.113,0.732,-32.654
0.281,-0.016,0.835,-17.822,1.282,-30.334
0.292,-0.003,0.833,-19.226,2.686,-28.259
0.279,0.010,0.831,-17.395,4.761,-25.024
0.264,0.022,0.848,-14.893,5.859,-21.057
0.232,0.019,0.870,-12.695,5.493,-17.639
0.192,0.005,0.895,-11.597,3.723,-14.343
0.148,0.006,0.915,-10.376,2.563,-12.024
0.114,0.014,0.941,-8.118,3.052,-10.803
0.083,0.018,0.957,-5.920,4.517,-10.986
0.048,0.020,0.969,-4.822,6.470,-12.207
0.024,0.023,0.977,-3.906,8.850,-14.038
0.019,0.040,0.973,-3.357,11.169,-16.724
0.031,0.052,0.989,-3.296,12.207,-20.325
0.058,0.064,1.003,-3.174,13.000,-23.682
0.076,0.097,1.019,-3.418,13.245,-25.391
0.078,0.013,1.007,-3.784,13.367,-27.527
0.078,0.031,1.024,-3.235,12.024,-25.391
0.163,0.103,1.012,-3.967,10.132,-23.010
0.107,0.181,1.027,-4.272,9.033,-31.250
0.079,0.049,1.001,-4.517,10.620,-47.485
0.069,-0.052,0.993,-4.333,7.690,-51.819

0.634,1.023,0.952,50.232,56.458,101.074
0.629,0.989,1.036,54.932,52.490,116.760
0.573,0.823,1.232,59.692,45.288,126.587
0.487,0.658,1.473,61.218,43.884,137.695
0.373,0.490,1.736,60.791,45.837,148.560
0.285,0.311,1.949,51.575,48.889,157.227
0.223,0.133,2.051,32.776,49.927,162.842
0.109,-0.021,2.105,16.296,45.105,167.480
-0.028,-0.144,2.112,5.493,39.490,170.593
-0.147,-0.287,2.093,3.357,33.081,167.542
-0.243,-0.427,2.069,6.226,20.264,159.851
-0.330,-0.517,2.055,12.512,3.357,149.719
-0.350,-0.585,2.079,20.935,-14.404,135.315
-0.353,-0.638,2.115,27.832,-29.602,117.126
-0.326,-0.672,2.096,29.297,-39.185,100.342
-0.206,-0.680,1.989,23.499,-43.396,85.510
-0.049,-0.698,1.894,14.526,-44.922,73.547
0.143,-0.644,1.811,4.089,-42.419,66.040
0.268,-0.770,1.737,-2.747,-33.508,57.739
0.359,-0.825,1.729,-9.521,-24.841,53.833
0.453,-0.799,1.635,-19.165,-18.250,52.979
0.499,-0.810,1.488,-31.311,-16.052,48.035
0.544,-0.777,1.332,-43.396,-17.822,40.283
0.569,-0.785,1.191,-50.232,-23.926,30.762
0.572,-0.830,1.146,-50.415,-34.607,19.226
0.592,-0.844,1.152,-49.744,-44.312,10.498
0.604,-0.869,1.102,-52.612,-50.171,2.319
0.590,-0.883,1.016,-56.091,-55.115,-4.639
0.539,-0.889,0.888,-59.692,-59.998,-13.306
0.449,-0.886,0.705,-55.176,-64.636,-24.353
0.353,-0.869,0.613,-51.453,-76.355,-39.490
0.316,-0.848,0.510,-50.415,-90.759,-58.960
0.354,-0.880,0.470,-48.523,-106.689,-77.576
0.377,-0.848,0.348,-52.063,-111.267,-89.233
0.380,-0.807,0.323,-52.246,-111.023,-92.957
0.396,-0.761,0.296,-52.490,-106.567,-94.482
0.401,-0.691,0.181,-54.810,-97.168,-92.773
0.395,-0.634,0.082,-54.626,-90.027,-89.478
0.353,-0.529,-0.064,-54.565,-83.801,-85.327
0.311,-0.417,-0.162,-54.565,-80.688,-84.167
0.278,-0.337,-0.191,-48.096,-82.886,-86.243
0.257,-0.267,-0.189,-39.673,-84.351,-89.844
0.245,-0.192,-0.195,-33.447,-83.008,-93.750
0.225,-0.142,-0.154,-25.574,-81.360,-99.121
0.231,-0.096,-0.129,-18.860,-77.393,-105.530
0.236,-0.055,-0.145,-11.047,-75.439,-110.779
0.237,-0.038,-0.131,-1.404,-76.355,-114.197
0.233,-0.035,-0.005,5.615,-77.515,-114.990
0.217,0.001,0.136,11.780,-72.998,-112.976
0.192,-0.013,0.128,14.648,-59.448,-109.436
0.155,0.057,0.142,1.770,-44.861,-99.304
0.094,0.187,0.181,0.244,-31.982,-90.820
0.049,0.214,0.145,-0.305,-18.188,-89.417
0.055,0.284,0.109,-4.150,-6.958,-89.966
0.048,0.347,0.095,-2.930,2.869,-91.553
0.039,0.364,0.003,-1.892,14.648,-94.360
0.050,0.524,0.090,-3.296,18.921,-96.252
0.108,0.550,0.123,2.869,24.719,-100.281
0.141,0.618,0.238,9.949,30.334,-100.952
0.233,0.624,0.252,15.869,42.297,-97.595
0.245,0.717,0.386,14.526,46.204,-84.106
0.276,0.719,0.523,8.240,48.035,-71.106
0.279,0.795,0.633,2.258,65.552,-58.533
0.293,0.912,0.628,2.380,90.271,-46.082
0.279,0.978,0.680,3.845,101.257,-35.217
0.252,0.975,0.779,4.517,104.736,-27.771
0.321,1.167,0.708,4.089,109.497,-19.592
0.279,1.094,0.945,-2.197,90.027,-24.841
0.300,0.907,1.079,-2.136,89.661,-29.297
0.334,1.022,1.022,0.793,121.887,-9.216
0.340,1.001,1.153,9.766,124.573,4.639
0.360,0.959,1.279,12.024,114.746,13.916
0.359,0.890,1.424,14.038,106.140,24.048
0.316,0.868,1.523,15.991,100.586,37.354
0.270,0.845,1.599,10.620,91.675,49.805
0.242,0.813,1.589,0.244,88.684,60.059
0.244,0.824,1.500,-7.629,90.881,71.045
0.207,0.841,1.426,-8.667,89.294,82.703
0.209,0.787,1.334,-5.676,83.313,90.027
0.209,0.711,1.302,7.629,78.979,89.966
0.179,0.636,1.360,22.705,68.176,92.102
0.183,0.537,1.439,31.555,55.664,92.651
0.152,0.430,1.544,38.330,43.030,91.858
0.118,0.344,1.602,36.682,31.860,91.553
0.091,0.285,1.623,31.067,24.414,90.759
0.087,0.261,1.568,23.743,22.766,89.478
0.121,0.248,1.440,16.235,23.682,88.074
0.138,0.198,1.287,9.644,23.437,87.402
0.147,0.140,1.175,9.399,24.231,90.759
0.160,0.113,1.089,18.188,26.123,96.558
0.165,0.072,1.045,32.715,23.071,96.924
0.201,-0.002,1.024,42.969,15.198,92.407
0.192,-0.124,1.079,55.359,3.784,86.487
0.178,-0.216,1.158,65.125,-6.104,83.618
0.128,-0.302,1.244,67.505,-14.893,80.322
0.103,-0.327,1.335,61.462,-20.325,73.853
0.062,-0.358,1.395,57.495,-23.132,60.486
0.049,-0.402,1.396,51.392,-20.630,46.509
0.092,-0.409,1.310,36.377,-12.634,39.368
0.165,-0.379,1.194,20.447,-5.920,34.363
0.196,-0.401,1.085,11.780,-3.784,29.114
0.213,-0.400,0.997,8.972,-3.479,24.658
0.210,-0.375,0.951,10.803,-5.493,20.691
0.182,-0.354,0.929,15.991,-11.536,16.235
0.164,-0.310,0.928,20.386,-18.311,10.315
0.144,-0.291,0.916,23.315,-24.719,2.197
0.115,-0.275,0.913,26.794,-30.579,-4.822
0.101,-0.244,0.943,31.006,-34.607,-11.353
0.096,-0.221,0.957,31.799,-33.569,-18.921
0.115,-0.200,0.953,23.010,-27.466,-26.917
0.150,-0.170,0.934,9.583,-17.517,-33.447
0.189,-0.145,0.901,0.305,-9.277,-37.720
0.214,-0.118,0.880,-4.517,-4.150,-39.124
0.239,-0.091,0.859,-7.324,-2.075,-38.818
0.253,-0.072,0.852,-5.981,-1.892,-36.804
0.250,-0.038,0.843,-2.930,0.061,-34.851
0.238,-0.001,0.837,-0.854,1.160,-34.058
0.143,-0.086,0.824,-0.916,1.160,-33.813
0.225,0.013,0.814,-8.972,-0.366,-25.940

-0.164,-0.460,1.996,36.987,3.296,112.305
-0.070,-0.374,1.936,31.433,-1.709,108.643
0.019,-0.307,1.860,27.832,-8.606,102.844
0.131,-0.360,1.789,20.630,-18.433,92.957
0.221,-0.373,1.707,9.277,-26.245,87.708
0.272,-0.346,1.628,-2.625,-31.433,85.999
0.407,-0.369,1.514,-14.221,-31.677,81.360
0.373,-0.276,1.447,-21.057,-31.372,68.665
0.369,-0.329,1.371,-22.888,-29.907,40.833
0.355,-0.471,1.223,-24.902,-31.006,12.024
0.307,-0.544,1.118,-29.419,-39.856,-8.484
0.261,-0.676,1.064,-32.593,-51.636,-23.560
0.259,-0.801,1.041,-34.485,-61.829,-30.151
0.252,-0.770,1.001,-34.790,-71.533,-25.452
0.236,-0.770,0.955,-36.133,-80.872,-21.973
0.284,-0.723,0.857,-40.344,-84.229,-20.203
0.297,-0.639,0.773,-42.175,-88.684,-25.146
0.309,-0.648,0.682,-41.748,-94.849,-37.720
0.334,-0.638,0.632,-41.138,-101.196,-49.133
0.335,-0.631,0.617,-40.100,-108.093,-57.373
0.312,-0.624,0.616,-38.269,-112.122,-63.049
0.273,-0.604,0.579,-36.926,-111.877,-68.115
0.260,-0.579,0.524,-35.278,-109.375,-73.669
0.271,-0.537,0.458,-29.358,-105.835,-78.491
0.221,-0.538,0.451,-25.696,-105.530,-82.214
0.175,-0.531,0.397,-25.574,-104.431,-85.327
0.166,-0.504,0.353,-28.076,-103.271,-87.830
0.204,-0.458,0.310,-31.677,-99.060,-90.393
0.170,-0.418,0.340,-37.415,-101.501,-90.271
0.144,-0.394,0.300,-36.804,-98.450,-90.820
0.132,-0.302,0.229,-35.400,-91.614,-91.003
0.135,-0.254,0.184,-33.997,-88.379,-94.971
0.142,-0.183,0.133,-29.236,-83.740,-98.267
0.160,-0.139,0.062,-23.132,-79.895,-99.976
0.199,-0.050,0.050,-14.709,-80.933,-98.267
0.176,0.040,0.081,-4.089,-79.712,-94.543
0.168,0.078,0.128,5.127,-75.867,-90.881
0.157,0.119,0.190,10.986,-67.383,-86.060
0.145,0.165,0.230,13.489,-51.147,-78.979
0.131,0.236,0.280,11.963,-31.433,-70.862
0.115,0.298,0.241,5.737,-10.742,-64.453
0.104,0.347,0.189,-2.686,5.798,-59.814
0.107,0.401,0.117,-6.226,20.752,-57.556
0.087,0.495,0.141,-6.348,29.297,-54.749
0.090,0.445,0.083,-0.427,35.034,-52.795
0.098,0.526,0.137,3.662,38.391,-49.438
0.057,0.597,0.312,10.742,34.241,-41.260
0.026,0.687,0.461,16.296,38.086,-33.875
-0.017,0.688,0.497,19.897,51.025,-30.457
-0.040,0.672,0.570,14.465,62.622,-29.236
-0.023,0.725,0.561,10.681,74.829,-26.917
-0.151,0.782,0.695,4.333,77.698,-31.006
-0.079,0.838,0.603,-1.221,81.604,-35.522
-0.156,0.910,0.815,-5.798,72.937,-42.358
-0.130,0.886,0.905,-7.080,80.200,-48.462
-0.053,0.924,0.751,2.258,102.112,-41.870
-0.021,0.958,0.810,13.062,106.079,-30.640
0.010,0.963,0.889,23.926,102.966,-24.780
0.036,0.934,1.049,29.846,98.022,-20.447
0.074,0.937,1.209,31.189,97.717,-12.695
0.079,0.956,1.308,28.198,99.487,-1.892
0.084,0.988,1.323,20.752,101.501,8.850
0.074,1.009,1.349,15.198,101.074,19.531
0.083,1.016,1.366,9.521,97.900,27.954
0.116,1.008,1.336,6.348,95.398,34.607
0.155,1.014,1.303,4.639,91.248,40.161
0.215,0.995,1.215,6.165,84.106,44.922
0.274,0.959,1.129,13.306,76.233,51.147
0.306,0.877,1.087,26.672,68.054,59.265
0.328,0.764,1.077,42.908,61.462,66.833
0.323,0.628,1.139,60.425,54.626,73.364
0.302,0.491,1.241,72.510,42.236,80.505
0.255,0.298,1.384,78.247,27.649,85.083
0.163,0.094,1.494,75.867,17.273,88.196
0.070,-0.026,1.532,67.383,13.000,91.064
-0.019,-0.102,1.510,53.650,9.949,91.309
-0.078,-0.155,1.433,40.100,10.620,86.731
-0.092,-0.147,1.320,31.494,13.855,79.468
-0.067,-0.163,1.190,27.527,16.724,69.519
-0.033,-0.169,1.062,28.564,18.982,58.411
0.101,-0.242,0.957,33.997,19.897,51.208
0.261,-0.238,0.861,46.997,14.038,48.035
0.348,-0.295,0.889,63.049,-2.747,42.053
0.316,-0.397,1.059,76.416,-20.081,36.987
0.284,-0.513,1.230,83.191,-26.184,34.302
0.213,-0.602,1.340,80.811,-23.376,32.654
0.176,-0.605,1.380,69.580,-17.334,30.151
0.171,-0.589,1.339,52.063,-9.888,24.109
0.146,-0.556,1.243,36.621,-2.808,15.991
0.152,-0.490,1.136,23.926,1.953,6.958
0.166,-0.461,1.017,13.306,4.028,-5.127
0.170,-0.423,0.916,7.385,3.784,-19.836
0.181,-0.379,0.860,7.812,0.305,-33.447
0.191,-0.352,0.801,13.367,-7.263,-43.945
0.160,-0.363,0.850,17.761,-18.066,-52.856
0.124,-0.367,0.890,19.531,-22.888,-63.843
0.109,-0.349,0.944,14.893,-21.912,-73.730
0.105,-0.375,1.001,10.193,-17.883,-80.017
0.083,-0.368,1.072,10.193,-11.047,-75.073
0.061,-0.333,1.103,0.671,-1.343,-64.575
0.073,-0.248,1.083,-10.254,8.484,-55.725
0.069,-0.230,1.043,-17.212,16.663,-50.049
0.079,-0.174,0.980,-21.545,20.813,-47.791
0.115,-0.049,0.930,-24.963,24.902,-46.448
0.130,-0.111,0.892,-27.405,26.672,-51.697
0.148,-0.051,0.896,-22.827,27.161,-44.922
0.163,0.011,0.899,-19.104,22.400,-39.063
0.160,0.048,0.941,-15.381,14.771,-35.156
0.142,0.012,0.979,-13.367,9.216,-34.607
0.131,0.058,0.975,-12.817,8.606,-34.180
0.139,0.057,0.982,-10.742,8.423,-32.104
0.131,0.074,0.978,-7.812,8.606,-28.442
0.134,0.073,0.992,-9.033,6.409,-27.588
0.127,0.080,1.006,-11.780,2.502,-25.452
0.100,0.151,1.009,-17.639,0.122,-24.597
0.120,-0.003,1.030,-32.471,-1.892,-28.748
0.152,0.014,1.027,-36.499,-4.700,-30.884
0.136,0.046,0.959,-34.973,-9.033,-21.606
0.158,0.017,0.993,-32.715,-17.578,-10.376

0.353,0.876,1.323,71.289,73.120,122.498
0.328,0.774,1.472,67.139,60.669,129.456
0.330,0.628,1.651,59.448,45.166,132.629
0.304,0.447,1.739,61.584,33.752,134.888
0.242,0.293,1.778,70.496,19.653,136.841
0.164,0.016,1.934,73.975,-5.005,130.676
0.058,-0.266,2.070,77.942,-25.085,120.544
-0.104,-0.552,2.212,80.200,-42.419,108.398
-0.250,-0.777,2.243,74.951,-53.955,96.375
-0.289,-0.959,2.216,66.895,-54.199,85.083
-0.249,-1.026,2.187,60.364,-50.842,79.956
-0.156,-1.001,2.140,52.734,-48.950,76.233
-0.058,-1.000,2.022,45.654,-49.133,69.763
0.013,-1.019,1.959,33.936,-56.824,63.354
0.056,-1.055,1.897,19.958,-64.148,59.448
0.090,-1.046,1.846,7.019,-61.157,57.068
0.135,-1.064,1.739,-7.751,-52.002,52.063
0.180,-1.074,1.614,-25.696,-44.495,45.227
0.215,-1.094,1.501,-41.138,-41.992,37.720
0.258,-1.121,1.395,-55.359,-42.236,28.870
0.318,-1.115,1.247,-68.726,-42.603,18.677
0.395,-1.147,1.167,-82.153,-45.349,5.371
0.475,-1.190,1.062,-90.027,-48.584,-6.714
0.533,-1.191,0.960,-93.628,-49.316,-15.991
0.579,-1.170,0.937,-96.924,-55.176,-25.024
0.615,-1.141,0.844,-100.769,-66.101,-33.569
0.632,-1.123,0.688,-102.905,-79.163,-40.710
0.585,-1.076,0.561,-100.220,-91.858,-46.509
0.492,-1.007,0.451,-94.238,-101.807,-53.284
0.482,-0.940,0.314,-89.661,-108.276,-62.988
0.464,-0.874,0.192,-82.947,-115.723,-73.425
0.436,-0.771,0.063,-73.242,-120.667,-82.764
0.412,-0.705,-0.001,-62.012,-127.930,-92.041
0.359,-0.644,-0.001,-47.302,-133.240,-100.220
0.302,-0.556,-0.013,-34.790,-132.324,-106.079
0.272,-0.490,-0.065,-27.283,-125.671,-112.000
0.241,-0.376,-0.082,-24.963,-114.624,-115.601
0.223,-0.281,-0.097,-22.827,-106.689,-117.798
0.204,-0.166,-0.152,-21.240,-95.581,-116.516
0.196,-0.075,-0.143,-19.165,-86.853,-113.159
0.172,-0.015,-0.079,-15.381,-81.055,-107.910
0.127,0.022,-0.050,-12.939,-70.862,-100.098
0.083,0.068,-0.016,-11.536,-57.312,-90.698
0.030,0.106,0.005,-8.850,-43.091,-82.581
-0.033,0.137,0.059,-6.653,-27.954,-79.224
-0.072,0.140,0.062,-6.958,-13.062,-79.407
-0.071,0.196,0.101,-13.672,-3.296,-80.811
-0.060,0.223,0.146,-20.020,2.808,-84.656
-0.042,0.234,0.167,-23.926,9.155,-90.515
0.001,0.332,0.213,-20.020,17.761,-96.130
0.042,0.409,0.225,-13.550,27.161,-101.990
0.100,0.444,0.242,-21.240,28.198,-106.079
0.150,0.520,0.166,-29.114,35.400,-105.957
0.210,0.716,0.214,-33.630,47.791,-106.812
0.305,0.697,0.082,-14.526,64.697,-111.511
0.391,0.755,0.231,-4.639,69.641,-107.849
0.402,0.758,0.425,14.832,70.679,-96.680
0.316,0.750,0.675,29.724,74.524,-84.351
0.271,0.782,0.831,37.231,82.275,-73.914
0.236,0.797,0.930,36.865,86.975,-60.364
0.113,0.804,1.000,27.832,86.060,-59.631
0.096,0.813,1.000,14.404,94.543,-56.335
0.111,0.898,0.958,9.644,103.638,-39.673
0.124,0.925,1.021,6.592,103.516,-28.992
0.106,0.880,1.098,10.071,101.379,-18.494
0.095,0.870,1.157,15.869,102.478,-6.104
0.083,0.816,1.244,23.132,99.060,4.028
0.052,0.779,1.382,25.208,90.881,13.062
0.026,0.703,1.510,22.034,82.153,20.325
0.007,0.658,1.568,17.883,81.848,27.405
-0.020,0.653,1.578,13.794,85.388,35.339
-0.014,0.645,1.533,7.324,88.196,41.321
0.019,0.652,1.424,3.052,90.271,46.570
0.045,0.653,1.339,4.028,89.722,51.880
0.074,0.669,1.282,10.681,83.496,58.411
0.069,0.606,1.282,20.386,70.374,64.209
0.098,0.547,1.255,29.724,62.012,68.054
0.143,0.503,1.238,35.706,55.176,72.876
0.195,0.430,1.262,41.016,47.363,78.430
0.204,0.327,1.318,43.396,38.818,84.473
0.209,0.214,1.335,40.466,32.471,89.478
0.179,0.093,1.336,37.048,27.649,92.285
0.121,-0.079,1.324,36.804,20.996,91.248
0.039,-0.190,1.350,32.410,10.376,90.027
-0.041,-0.281,1.383,25.452,2.686,86.304
-0.095,-0.325,1.348,22.217,2.869,79.529
-0.117,-0.338,1.248,20.630,5.432,70.923
-0.112,-0.317,1.175,17.639,3.845,59.753
-0.057,-0.303,1.108,12.878,0.061,45.959
0.027,-0.291,1.044,11.475,-3.967,33.569
0.118,-0.280,1.024,13.855,-8.789,24.475
0.186,-0.307,1.050,15.320,-14.038,18.127
0.233,-0.333,1.100,15.625,-18.982,15.137
0.243,-0.355,1.180,16.235,-22.583,15.076
0.222,-0.365,1.266,15.686,-24.475,14.709
0.155,-0.353,1.283,11.475,-26.245,7.996
0.127,-0.377,1.292,0.427,-28.564,-2.563
0.093,-0.368,1.250,-12.207,-28.076,-9.399
0.066,-0.317,1.172,-20.081,-25.208,-15.015
0.051,-0.249,1.070,-24.536,-21.606,-22.522
0.079,-0.252,0.978,-24.292,-19.897,-32.349
0.088,-0.255,0.944,-23.560,-20.203,-37.842
0.101,-0.206,0.908,-21.301,-17.822,-35.767
0.149,-0.138,0.907,-19.531,-15.564,-29.480
0.163,-0.052,0.915,-17.456,-14.404,-23.865
0.172,-0.051,0.938,-14.954,-13.123,-24.353
0.184,-0.048,0.976,-16.113,-10.559,-23.743
0.188,-0.022,1.003,-16.846,-5.005,-20.508
0.170,0.011,1.031,-17.151,0.366,-16.418
0.138,0.035,1.035,-18.066,5.493,-13.672
0.121,0.045,1.016,-20.447,7.874,-12.939
0.108,0.070,1.008,-22.339,8.057,-12.024
0.084,0.090,0.996,-22.583,8.789,-11.841
0.068,0.109,0.968,-20.691,10.193,-12.390
0.056,0.133,0.950,-18.250,9.766,-13.245
0.060,0.144,0.944,-15.747,7.263,-14.404
0.061,0.157,0.953,-13.000,5.432,-15.198
0.066,0.178,0.953,-9.888,5.554,-15.259
0.080,0.197,0.935,-8.301,5.066,-14.648

-0.048,-0.521,2.159,19.470,-17.578,36.194
-0.145,-0.531,2.126,-2.075,-12.329,46.509
-0.229,-0.540,1.948,-29.297,-0.183,48.767
-0.222,-0.542,1.677,-53.406,9.521,47.119
-0.164,-0.522,1.400,-67.200,12.756,41.565
-0.128,-0.506,1.283,-67.200,1.770,31.189
-0.104,-0.573,1.283,-63.232,-13.428,16.968
-0.040,-0.677,1.231,-57.739,-22.766,4.395
0.020,-0.740,1.111,-50.720,-26.672,-1.892
0.116,-0.763,1.018,-55.237,-31.189,-2.808
0.216,-0.713,1.115,-59.448,-38.635,-1.587
0.200,-0.627,1.115,-49.072,-38.330,1.282
0.153,-0.600,0.922,-38.635,-26.428,-1.404
0.141,-0.699,0.727,-24.597,-23.621,-10.071
0.165,-0.729,0.606,-18.311,-30.090,-14.404
0.193,-0.681,0.616,-14.343,-42.786,-15.015
0.228,-0.686,0.586,-4.211,-51.147,-20.264
0.299,-0.689,0.540,2.808,-56.641,-24.414
0.322,-0.674,0.463,9.583,-60.181,-27.710
0.332,-0.670,0.422,20.569,-62.195,-27.466
0.364,-0.615,0.313,31.616,-57.800,-22.278
0.376,-0.540,0.235,45.593,-53.833,-14.526
0.375,-0.401,0.111,53.711,-46.875,-6.775
0.306,-0.237,0.003,59.631,-43.396,-1.709
0.197,-0.144,-0.061,59.509,-44.128,-3.723
0.152,-0.126,-0.080,53.650,-46.082,-12.146
0.089,-0.092,-0.044,41.687,-49.194,-20.752
0.073,-0.093,0.007,32.410,-50.964,-27.405
0.072,-0.080,0.055,25.330,-50.110,-32.654
0.083,-0.075,0.087,21.545,-49.194,-36.987
0.113,-0.082,0.080,17.822,-47.913,-40.771
0.141,-0.103,0.026,13.916,-42.542,-42.114
0.141,-0.073,0.044,5.371,-37.476,-38.208
0.147,0.017,0.145,-1.099,-35.583,-28.625
0.170,0.103,0.156,-3.418,-28.992,-22.339
0.140,0.147,0.242,-13.123,-24.719,-19.287
0.150,0.091,0.279,-28.503,-20.020,-14.526
0.151,0.088,0.356,-44.983,-16.113,-0.427
0.157,0.264,0.509,-44.189,-9.644,18.066
0.158,0.609,0.479,-26.672,6.775,29.602
0.150,0.775,0.361,-13.000,23.621,22.766
0.148,0.847,0.321,3.601,31.921,3.723
0.223,0.775,0.340,17.883,35.767,-19.104
0.193,0.670,0.499,33.569,31.311,-36.926
0.215,0.441,0.583,46.936,34.973,-52.795
0.243,0.266,0.662,33.203,38.269,-47.424
0.244,0.326,0.906,8.972,37.476,-26.794
0.247,0.466,1.169,-6.226,41.870,-9.888
0.220,0.550,1.320,-7.080,54.016,-4.211
0.189,0.556,1.342,-1.099,70.313,-6.470
0.168,0.515,1.277,0.000,83.740,-9.277
0.166,0.544,1.197,-3.845,89.600,-6.348
0.192,0.632,1.148,-10.254,85.510,-0.366
0.212,0.714,1.142,-12.634,76.233,3.662
0.212,0.777,1.159,-5.066,66.406,3.784
0.260,0.733,1.216,5.310,51.636,0.671
0.298,0.608,1.301,12.878,36.926,0.061
0.293,0.509,1.399,26.184,25.269,6.958
0.274,0.501,1.497,29.907,18.005,18.005
0.236,0.509,1.543,25.085,15.320,25.879
0.190,0.460,1.520,19.592,16.113,28.137
0.132,0.432,1.458,11.719,17.761,29.236
0.096,0.403,1.356,-1.099,22.095,28.076
0.138,0.402,1.224,-13.428,26.062,26.733
0.173,0.425,1.141,-20.569,21.484,26.489
0.151,0.380,1.142,-24.658,10.376,21.790
0.103,0.261,1.189,-27.527,-3.357,13.489
0.058,0.119,1.259,-34.241,-14.465,5.798
0.028,-0.001,1.326,-41.138,-21.301,1.038
0.008,-0.121,1.364,-42.786,-22.949,-1.099
-0.009,-0.221,1.383,-41.992,-19.836,-0.916
-0.030,-0.267,1.410,-41.321,-14.526,2.319
-0.065,-0.302,1.388,-35.950,-6.958,4.944
-0.089,-0.335,1.303,-25.085,1.160,6.775
-0.092,-0.325,1.225,-17.822,6.409,8.911
-0.074,-0.290,1.183,-16.663,7.568,10.010
-0.049,-0.276,1.129,-15.686,7.874,8.789
-0.031,-0.265,1.086,-12.146,6.348,7.507
-0.021,-0.261,1.059,-8.728,1.953,5.249
-0.026,-0.275,1.075,-5.371,-3.845,2.380
-0.042,-0.292,1.124,-3.296,-7.874,-0.732
-0.057,-0.306,1.167,-2.930,-7.141,-3.418
-0.047,-0.302,1.180,-5.920,-3.479,-5.676
-0.027,-0.259,1.174,-10.986,1.160,-7.141
-0.005,-0.204,1.142,-13.977,6.592,-9.277
0.020,-0.166,1.090,-14.954,11.047,-12.878
0.100,-0.107,1.038,-14.343,12.939,-16.846
0.078,-0.097,1.003,-6.592,12.817,-22.278
0.104,-0.119,0.975,-2.808,13.000,-23.987
0.137,-0.089,0.964,-1.526,13.550,-19.287
0.190,0.005,0.954,-1.099,13.184,-12.451
0.186,0.079,0.952,0.244,10.925,-9.521
0.215,0.071,0.929,0.061,8.301,-9.399
0.212,0.075,0.940,-0.732,5.859,-6.653
0.203,0.103,0.973,-0.183,3.235,-2.686
0.196,0.125,1.000,0.732,1.099,0.000
0.171,0.141,1.019,4.272,-0.183,1.892
0.126,0.138,1.013,7.874,0.183,1.831
0.110,0.117,0.992,8.301,1.038,0.793
0.111,0.128,0.984,5.737,1.587,0.854
0.112,0.167,0.971,4.517,2.136,0.610
0.125,0.158,0.933,6.409,2.991,-1.953
0.126,0.145,0.895,9.827,2.258,-3.662
0.129,0.148,0.896,10.498,0.061,-4.272
0.138,0.148,0.914,8.301,-2.197,-4.883
0.139,0.135,0.913,9.033,-2.747,-5.554
0.140,0.117,0.913,10.376,-2.930,-5.310
0.123,0.107,0.929,11.841,-3.723,-3.723
0.111,0.089,0.956,11.658,-5.371,-2.869
0.101,0.055,0.995,8.850,-6.287,-2.625
0.104,0.040,1.005,5.737,-4.761,-1.709
0.094,0.056,0.993,4.517,-3.052,-0.793
0.101,0.046,0.966,3.296,-1.953,-1.709
0.091,0.032,0.958,3.052,-2.136,-2.563
0.093,0.032,0.964,2.869,-2.930,-3.052
0.107,0.027,0.981,2.930,-3.845,-4.150
0.114,0.019,1.001,4.211,-4.578,-5.188
0.122,0.009,1.003,6.775,-4.883,-5.066
0.127,0.001,1.006,8.972,-5.615,-3.906

0.370,1.545,1.131,-7.080,29.541,12.268
0.499,1.621,1.156,-43.213,35.400,-1.099
0.600,1.573,1.237,-74.097,26.672,-15.076
0.616,1.405,1.443,-87.463,5.554,-28.442
0.521,1.180,1.735,-93.933,-11.414,-41.199
0.317,0.913,2.028,-104.004,-15.625,-55.847
0.101,0.551,2.398,-103.760,-6.409,-73.730
-0.082,0.027,2.289,-67.261,19.592,-86.792
-0.249,-0.412,2.087,-73.486,44.312,-82.275
-0.457,-0.693,1.830,-88.806,50.659,-56.824
-0.594,-0.565,2.026,-142.517,39.368,-16.113
-0.718,-0.505,2.158,-144.287,28.137,14.954
-0.779,-0.458,2.263,-132.324,27.466,25.330
-0.771,-0.449,2.384,-131.287,23.804,22.461
-0.656,-0.483,2.500,-125.854,22.522,13.000
-0.439,-0.510,2.469,-111.572,30.518,7.019
-0.305,-0.611,2.370,-85.876,42.236,4.517
-0.174,-0.694,2.207,-57.739,54.871,5.127
-0.045,-0.726,2.007,-36.621,65.063,9.827
0.026,-0.743,1.789,-14.038,70.801,13.916
0.135,-0.805,1.489,7.202,73.975,15.808
0.236,-0.874,1.169,28.503,70.190,18.677
0.280,-0.909,0.871,52.429,56.152,22.156
0.341,-0.954,0.604,62.500,32.471,22.766
0.208,-0.989,0.517,50.415,-3.723,21.790
0.051,-0.865,0.599,22.644,-36.072,21.851
0.010,-0.723,0.618,-3.052,-53.650,15.564
0.011,-0.690,0.516,-21.301,-62.134,-1.709
0.001,-0.725,0.404,-30.945,-69.214,-21.423
0.012,-0.730,0.305,-37.903,-75.317,-35.767
0.039,-0.716,0.241,-36.926,-80.078,-44.128
0.048,-0.718,0.174,-29.724,-85.510,-48.767
-0.042,-0.714,0.178,-17.151,-92.529,-50.720
-0.092,-0.644,0.192,-9.033,-93.018,-50.903
-0.112,-0.566,0.147,-1.465,-85.693,-52.917
-0.166,-0.573,0.068,13.550,-79.407,-58.289
-0.222,-0.604,-0.029,34.241,-75.623,-60.974
-0.055,-0.641,-0.021,50.049,-73.425,-56.335
0.140,-0.557,-0.028,32.593,-62.988,-40.527
0.198,-0.436,-0.064,11.108,-46.936,-19.653
0.291,-0.306,0.028,0.366,-34.912,-1.953
0.313,-0.131,0.064,-11.902,-16.602,15.076
0.281,-0.016,-0.018,-6.470,2.930,29.236
0.283,0.040,-0.087,9.644,13.245,40.344
0.242,0.072,-0.099,24.841,11.414,53.894
0.191,0.158,-0.036,39.795,4.761,66.589
0.157,0.290,0.050,54.077,0.549,72.083
0.151,0.486,0.085,64.392,0.366,67.139
0.244,0.841,0.188,48.096,0.854,47.424
0.258,0.763,0.255,42.542,-1.221,7.507
0.349,0.801,0.275,52.734,7.019,-26.855
0.403,0.832,0.304,66.711,17.639,-45.593
0.498,1.014,0.307,71.411,27.649,-54.871
0.507,1.013,0.312,77.393,28.320,-57.190
0.522,1.082,0.413,91.614,24.353,-61.035
0.483,1.057,0.658,102.295,12.756,-64.270
0.471,0.982,0.768,103.638,16.418,-64.148
0.530,0.866,0.840,97.900,28.015,-55.786
0.467,0.807,0.972,91.797,32.227,-34.302
0.397,0.768,1.095,85.022,37.659,-15.930
0.345,0.704,1.184,74.341,44.678,-4.639
0.298,0.630,1.219,63.110,50.598,3.052
0.264,0.634,1.160,52.307,56.458,10.193
0.228,0.566,0.930,29.602,56.824,11.414
0.135,0.470,0.977,-15.991,40.771,10.681
0.092,0.494,1.200,-27.832,15.991,17.883
0.071,0.428,1.362,-0.854,5.859,14.465
0.060,0.234,1.469,19.958,4.272,-0.366
0.047,0.052,1.583,11.841,1.892,-8.911
0.004,-0.088,1.723,2.319,-0.305,-10.376
-0.014,-0.146,1.824,-11.536,1.465,-5.737
-0.022,-0.121,1.913,-37.964,4.333,1.160
-0.013,-0.150,1.856,-69.153,19.348,1.587
-0.003,-0.252,1.652,-76.782,34.790,2.991
-0.044,-0.327,1.511,-73.120,37.903,12.390
-0.143,-0.358,1.504,-82.642,36.865,24.963
-0.237,-0.306,1.564,-108.521,33.264,37.598
-0.206,-0.220,1.536,-124.878,29.236,42.603
-0.150,-0.179,1.454,-110.413,22.827,38.147
-0.073,-0.194,1.347,-87.402,18.066,30.640
0.002,-0.184,1.263,-70.923,8.789,29.480
0.063,-0.111,1.243,-61.890,-2.808,30.884
0.120,-0.066,1.243,-52.063,-12.878,26.917
0.145,-0.123,1.243,-32.410,-17.700,15.991
0.091,-0.264,1.312,-11.414,-19.470,7.019
0.031,-0.352,1.376,0.549,-16.052,6.409
-0.018,-0.363,1.376,5.188,-7.141,8.911
-0.053,-0.366,1.307,5.554,2.502,9.033
-0.066,-0.349,1.207,6.348,8.423,7.812
-0.074,-0.333,1.100,9.583,9.277,5.676
-0.078,-0.288,1.045,12.939,5.432,4.089
-0.085,-0.232,1.041,14.038,-0.732,1.709
-0.080,-0.187,1.053,12.512,-4.333,-2.319
-0.077,-0.145,1.054,11.414,-5.127,-7.141
-0.054,-0.095,1.006,12.512,-3.540,-11.902
-0.000,-0.048,0.945,15.320,-3.479,-15.991
0.063,0.003,0.913,15.015,-6.836,-19.165
0.143,0.045,0.910,10.193,-11.169,-21.484
0.202,0.065,0.931,5.859,-14.526,-22.278
0.246,0.071,0.998,2.136,-14.832,-21.240
0.260,0.061,1.050,0.610,-10.071,-18.188
0.235,0.037,1.036,5.859,-1.038,-14.404
0.188,0.049,1.016,6.592,6.775,-9.338
0.164,0.012,1.002,1.221,10.864,-4.150
0.118,0.059,0.984,-5.676,13.184,3.418
0.092,0.118,0.945,-2.014,14.343,6.531
0.070,0.123,0.908,0.610,12.390,3.845
0.081,0.094,0.871,0.000,9.338,-0.610
0.095,0.073,0.864,-2.808,4.700,-1.465
0.099,0.069,0.869,-3.967,0.122,0.610
0.100,0.092,0.884,-5.981,-2.686,3.906
0.108,0.126,0.893,-5.493,-3.418,5.005
0.126,0.126,0.903,-0.244,-2.930,3.784
0.125,0.120,0.927,5.676,-2.502,2.930
0.127,0.102,0.942,12.146,-1.526,1.343
0.135,0.082,0.959,13.245,1.587,-0.671
0.111,0.046,0.971,13.428,5.188,-1.343
0.050,-0.000,0.990,13.733,8.301,-0.732
0.023,-0.037,0.975,16.479,9.949,-0.488

0.470,1.203,1.231,-11.169,28.687,2.625
0.527,1.100,1.402,-38.269,23.376,-3.296
0.538,0.966,1.660,-74.158,17.822,-6.531
0.418,0.711,1.980,-92.285,14.771,-11.353
0.217,0.453,2.330,-97.046,13.306,-17.029
-0.027,0.025,2.502,-85.754,18.616,-22.461
-0.211,-0.454,2.500,-70.740,31.494,-13.123
-0.353,-0.604,2.371,-61.768,49.011,20.569
-0.521,-0.532,2.194,-44.067,63.904,51.331
-0.559,-0.477,2.085,-37.354,60.364,57.190
-0.482,-0.650,2.150,-45.471,32.471,35.400
-0.378,-0.895,2.322,-62.683,-0.122,9.155
-0.275,-1.047,2.487,-71.228,-21.667,-4.761
-0.239,-1.291,2.532,-71.045,-25.146,-14.099
-0.183,-1.508,2.459,-78.125,-14.038,-19.348
-0.053,-1.596,2.189,-82.703,5.432,-10.803
-0.004,-1.634,1.751,-66.650,27.039,3.601
0.018,-1.621,1.398,-68.359,33.142,15.991
0.044,-1.522,1.202,-81.360,24.353,22.949
-0.003,-1.460,1.112,-81.055,10.498,21.057
-0.069,-1.422,0.990,-77.454,0.122,12.512
-0.112,-1.357,0.872,-80.872,-7.935,2.136
-0.046,-1.288,0.664,-85.144,-12.878,-9.583
0.047,-1.220,0.275,-74.036,-11.841,-20.386
0.156,-1.014,-0.057,-66.406,-19.348,-24.414
0.181,-0.857,-0.135,-63.782,-42.236,-28.015
0.180,-0.755,-0.124,-56.274,-60.364,-34.607
0.145,-0.652,-0.174,-39.795,-68.665,-37.842
0.043,-0.490,-0.245,-21.667,-69.885,-38.696
0.020,-0.314,-0.311,-12.024,-67.383,-41.809
0.034,-0.204,-0.336,-9.644,-67.993,-50.293
0.059,-0.153,-0.354,-7.935,-68.420,-60.608
0.087,-0.118,-0.330,-4.639,-64.758,-67.749
0.153,-0.067,-0.226,0.854,-61.951,-69.458
0.220,-0.055,-0.107,0.854,-57.007,-68.481
0.265,-0.067,-0.051,6.775,-43.518,-64.758
0.315,-0.042,-0.063,13.672,-27.161,-56.885
0.348,0.001,-0.087,23.743,-17.883,-47.241
0.406,0.042,-0.072,43.213,-16.724,-35.950
0.392,0.179,-0.024,46.448,-16.724,-20.081
0.326,0.276,0.076,40.771,-21.729,-6.165
0.217,0.265,0.216,47.180,-22.888,-0.366
0.151,0.265,0.256,59.509,-13.733,6.653
0.072,0.365,0.391,70.374,-9.460,15.381
0.052,0.400,0.433,75.317,1.892,12.207
0.140,0.342,0.323,79.407,16.052,4.211
0.265,0.264,0.252,72.449,21.423,2.319
0.349,0.242,0.365,52.917,19.043,10.071
0.361,0.325,0.564,38.818,15.808,29.297
0.354,0.594,0.657,36.682,20.874,48.096
0.300,0.872,0.856,31.250,19.775,50.049
0.283,0.698,0.975,29.297,25.208,24.841
0.284,0.485,1.057,27.588,33.630,6.836
0.226,0.401,1.073,17.761,38.147,7.996
0.188,0.556,1.186,-0.061,39.001,9.644
0.152,0.737,1.158,0.977,46.875,3.967
0.125,0.734,0.956,20.691,56.641,-11.230
0.117,0.512,0.814,28.320,55.054,-26.428
0.108,0.188,0.854,-5.249,41.138,-23.865
0.148,0.403,1.167,-59.998,24.902,5.249
0.216,0.718,1.378,-60.852,21.057,28.809
0.249,0.883,1.453,-38.269,25.330,32.410
0.280,0.892,1.482,-7.385,27.161,23.499
0.306,0.791,1.479,14.893,26.367,15.198
0.317,0.688,1.470,22.461,25.208,14.709
0.326,0.591,1.421,33.813,23.315,21.790
0.314,0.528,1.332,46.204,22.644,32.104
0.234,0.478,1.242,51.575,23.315,40.466
0.179,0.424,1.198,52.856,17.639,43.396
0.142,0.329,1.265,44.678,1.343,41.809
0.108,0.171,1.390,31.189,-10.620,34.973
0.096,0.045,1.451,16.541,-15.930,31.006
0.121,-0.046,1.453,2.930,-18.311,31.616
0.158,-0.113,1.453,-7.324,-21.790,36.499
0.190,-0.120,1.449,-16.968,-26.001,45.898
0.144,-0.152,1.432,-16.479,-24.109,51.331
0.066,-0.212,1.385,-9.277,-14.648,50.720
-0.010,-0.266,1.360,-5.249,-11.169,49.011
-0.082,-0.301,1.373,-6.287,-14.343,46.509
-0.108,-0.345,1.358,-3.784,-17.700,41.931
-0.111,-0.390,1.288,6.714,-18.982,36.743
-0.171,-0.474,1.232,15.442,-20.203,35.034
-0.119,-0.449,1.178,12.634,-21.545,40.039
-0.081,-0.374,1.128,15.747,-23.071,42.053
-0.070,-0.358,1.077,24.597,-25.330,34.241
-0.087,-0.461,1.063,31.189,-29.785,22.705
-0.110,-0.550,1.092,26.428,-32.227,16.602
-0.114,-0.570,1.114,15.686,-31.067,14.893
-0.118,-0.568,1.138,7.385,-26.001,12.695
-0.119,-0.548,1.140,2.258,-18.799,9.583
-0.118,-0.509,1.086,1.587,-10.498,5.981
-0.098,-0.486,0.991,3.784,-3.845,1.343
-0.077,-0.452,0.905,5.615,-1.038,-2.808
-0.047,-0.412,0.844,6.897,-2.319,-5.859
-0.033,-0.393,0.810,10.986,-6.531,-8.484
-0.029,-0.362,0.817,12.756,-11.597,-10.010
-0.010,-0.310,0.814,12.695,-15.930,-10.742
-0.000,-0.277,0.822,11.963,-18.982,-12.512
0.036,-0.249,0.829,8.118,-19.165,-14.648
0.062,-0.237,0.850,6.714,-19.226,-15.259
0.046,-0.236,0.953,6.226,-20.996,-14.465
0.033,-0.227,1.063,2.075,-19.531,-12.329
0.026,-0.226,1.096,0.244,-11.169,-9.521
0.009,-0.213,1.097,2.502,-2.258,-6.226
-0.008,-0.171,1.088,3.113,3.784,-2.930
-0.023,-0.126,1.056,2.441,6.531,-2.014
-0.021,-0.101,1.010,3.601,7.751,-3.479
-0.019,-0.092,0.983,8.301,7.751,-6.409
-0.017,-0.074,0.975,12.024,4.944,-8.301
-0.014,-0.074,0.995,13.367,0.305,-10.132
-0.006,-0.080,1.015,14.771,-2.563,-11.230
-0.003,-0.064,1.016,16.479,-3.235,-10.071
0.002,-0.073,1.023,17.334,-3.235,-9.460
0.008,-0.094,1.029,15.991,-3.174,-8.728
0.014,-0.096,1.020,15.015,-2.869,-5.737
0.003,-0.096,1.009,14.832,-2.625,-2.319
-0.016,-0.111,0.998,13.916,-1.221,0.244
-0.140,-0.184,1.005,10.315,2.014,2.380
-0.077,-0.194,0.974,-2.380,6.042,8.728

0.297,0.787,1.601,69.275,17.639,32.715
0.269,0.537,1.573,38.391,15.686,11.780
0.215,0.354,1.792,-18.188,-4.883,-4.700
0.071,0.093,2.002,-41.687,-23.193,-17.822
-0.010,-0.273,2.026,-49.561,-26.611,-28.442
-0.174,-0.609,2.158,-63.354,-26.550,-29.358
-0.447,-0.776,2.421,-81.421,-24.963,-16.602
-0.702,-0.943,2.461,-87.585,-6.531,1.282
-0.790,-0.954,2.220,-98.267,28.687,19.226
-0.798,-0.827,1.803,-106.140,60.364,32.959
-0.689,-0.701,1.527,-88.623,63.293,34.119
-0.558,-0.652,1.566,-65.857,38.269,23.682
-0.594,-0.659,1.855,-34.363,11.597,2.319
-0.599,-0.878,1.954,-11.353,6.470,-25.269
-0.433,-1.029,1.906,-9.705,14.465,-46.387
-0.235,-1.183,1.744,-16.846,23.865,-53.955
-0.043,-1.314,1.527,-40.466,37.476,-51.819
0.089,-1.317,1.372,-65.308,45.410,-37.476
0.103,-1.285,1.178,-73.547,54.993,-20.325
0.107,-1.200,0.948,-75.745,64.758,-5.981
0.123,-1.109,0.824,-88.196,61.462,-1.526
0.153,-1.078,0.666,-96.619,52.246,-5.798
0.198,-1.059,0.506,-92.529,40.894,-13.611
0.255,-1.028,0.463,-94.116,14.404,-21.179
0.212,-1.079,0.587,-99.060,-18.250,-32.104
0.129,-1.139,0.770,-103.394,-42.847,-41.992
0.040,-1.199,0.857,-103.577,-52.979,-48.584
-0.034,-1.196,0.806,-95.337,-52.612,-50.659
-0.059,-1.105,0.716,-88.623,-49.194,-49.561
-0.047,-1.053,0.562,-81.421,-46.265,-52.002
-0.008,-1.052,0.380,-72.144,-47.302,-56.946
0.061,-1.029,0.219,-62.012,-52.979,-57.983
0.080,-0.934,0.143,-49.866,-62.683,-53.101
-0.000,-0.835,0.181,-34.180,-72.815,-47.302
-0.036,-0.758,0.209,-28.198,-71.289,-43.579
-0.053,-0.714,0.212,-29.358,-62.378,-41.748
-0.029,-0.638,0.114,-28.748,-48.828,-38.757
0.022,-0.540,-0.033,-27.893,-34.973,-34.546
0.060,-0.441,-0.132,-26.062,-28.137,-30.945
0.095,-0.330,-0.239,-16.724,-24.963,-28.687
0.133,-0.232,-0.353,-1.099,-24.902,-27.344
0.144,-0.172,-0.350,19.958,-27.832,-26.917
0.162,-0.150,-0.301,43.640,-30.457,-24.292
0.188,-0.103,-0.318,75.928,-29.480,-15.625
0.240,-0.008,-0.299,116.760,-31.006,-0.305
0.265,0.114,-0.301,155.884,-33.569,17.273
0.241,0.299,-0.192,145.630,-36.316,35.278
0.217,0.327,-0.056,139.160,-40.771,42.053
0.208,0.304,0.025,135.376,-37.598,45.288
0.231,0.330,0.173,124.390,-35.217,47.913
0.269,0.382,0.338,120.972,-27.771,46.204
0.312,0.704,0.564,123.474,-16.052,38.513
0.250,0.615,0.742,123.352,6.409,7.507
0.244,0.381,0.785,110.229,31.433,-22.644
0.328,0.331,0.759,91.431,48.340,-31.189
0.432,0.472,0.838,79.712,53.650,-29.297
0.484,0.520,0.933,82.703,54.077,-36.194
0.477,0.327,1.051,87.402,56.335,-47.424
0.560,0.337,0.937,82.458,76.904,-40.161
0.598,0.438,0.858,78.308,82.825,-19.836
0.620,0.401,0.905,80.078,65.125,-9.766
0.506,0.112,1.045,49.988,40.100,-2.686
0.405,-0.032,1.343,-0.305,16.296,22.583
0.299,0.068,1.672,-17.822,6.226,60.059
0.152,0.226,1.875,-18.921,15.198,81.482
0.075,0.278,1.807,-15.198,36.255,80.688
0.042,0.301,1.659,-22.583,51.208,73.608
0.060,0.378,1.536,-30.945,57.556,65.979
0.054,0.443,1.459,-31.128,53.101,57.678
0.062,0.470,1.324,-27.771,47.180,47.913
0.105,0.346,1.173,-20.447,32.776,32.654
0.130,0.164,1.229,-34.973,5.371,19.531
0.103,-0.049,1.417,-64.514,-16.663,9.705
0.016,-0.204,1.646,-81.116,-28.992,6.042
-0.083,-0.323,1.786,-86.365,-36.133,7.996
-0.139,-0.377,1.870,-100.281,-38.574,12.329
-0.180,-0.405,1.945,-108.398,-37.903,17.944
-0.229,-0.380,1.996,-106.140,-30.090,24.963
-0.317,-0.327,1.990,-92.896,-14.221,30.273
-0.375,-0.368,1.789,-75.867,10.010,29.114
-0.307,-0.383,1.458,-61.096,32.532,28.015
-0.192,-0.382,1.194,-47.058,39.795,25.024
-0.098,-0.357,1.099,-35.950,29.419,18.677
-0.035,-0.380,1.081,-22.522,11.719,7.446
-0.027,-0.501,1.100,-8.850,-5.554,-3.662
-0.016,-0.596,1.135,-3.052,-19.531,-5.798
-0.058,-0.627,1.189,2.380,-29.053,-0.183
-0.106,-0.603,1.216,2.380,-32.104,7.080
-0.106,-0.572,1.173,-5.005,-28.015,9.644
-0.083,-0.586,1.091,-7.202,-21.912,7.080
-0.085,-0.584,1.065,-8.728,-19.409,4.333
-0.094,-0.536,1.059,-14.587,-17.517,3.113
-0.073,-0.508,1.007,-18.372,-10.620,-0.366
-0.050,-0.505,0.921,-14.221,-4.395,-4.700
-0.030,-0.476,0.874,-9.888,-3.235,-8.057
-0.022,-0.433,0.883,-7.202,-4.456,-10.742
-0.004,-0.400,0.870,-5.371,-3.052,-13.367
0.039,-0.374,0.807,-2.808,0.854,-15.076
0.057,-0.350,0.783,2.686,1.221,-15.137
0.041,-0.306,0.854,8.179,-1.099,-14.099
0.027,-0.256,0.951,12.512,-1.770,-13.733
0.022,-0.241,1.000,15.930,1.160,-14.648
0.045,-0.229,0.995,15.076,6.348,-15.198
0.068,-0.206,0.968,12.207,11.108,-14.832
0.078,-0.173,0.960,9.521,12.085,-13.550
0.072,-0.148,0.977,6.531,8.789,-13.000
0.069,-0.131,0.985,2.319,6.348,-13.428
0.088,-0.133,0.958,-0.366,6.104,-14.771
0.090,-0.119,0.978,-2.625,3.174,-14.832
0.080,-0.114,0.993,-4.639,1.648,-14.771
0.076,-0.103,0.972,-4.700,2.686,-14.038
0.067,-0.112,0.964,-8.301,3.845,-13.306
0.085,-0.085,0.972,-16.113,3.906,-10.864
0.095,-0.052,0.961,-17.151,4.395,-9.277
0.071,-0.056,0.940,-13.000,4.517,-10.803
0.037,-0.100,0.935,-11.841,4.211,-12.451
0.028,-0.120,0.942,-12.756,5.005,-9.949
0.036,-0.080,0.954,-12.695,5.920,-4.761
0.029,-0.060,0.941,-8.972,7.324,-2.441

-0.528,-0.475,2.025,-30.701,-15.564,45.959
-0.590,-0.504,2.212,-48.584,-17.761,49.988
-0.662,-0.469,2.420,-56.152,-14.832,49.622
-0.681,-0.552,2.434,-56.763,-4.578,39.307
-0.596,-0.611,2.366,-75.073,7.019,26.672
-0.522,-0.711,2.274,-81.909,17.944,15.869
-0.459,-0.848,2.130,-79.529,31.738,8.118
-0.365,-0.969,1.887,-76.233,48.645,6.042
-0.373,-1.000,1.753,-77.942,55.237,10.132
-0.418,-0.930,1.681,-86.853,57.129,16.785
-0.402,-0.899,1.538,-93.201,63.110,16.418
-0.330,-0.895,1.428,-101.074,63.965,6.348
-0.237,-0.957,1.305,-106.323,58.472,-9.094
-0.101,-1.048,1.174,-109.985,49.133,-25.024
0.086,-1.121,1.043,-114.136,39.307,-37.415
0.201,-1.236,0.974,-103.943,27.466,-46.692
0.247,-1.409,0.888,-101.929,16.174,-47.119
0.279,-1.301,0.881,-120.056,2.563,-32.166
0.228,-1.194,0.803,-119.629,-6.470,-20.569
0.159,-1.158,0.629,-108.887,-13.123,-18.005
0.106,-1.074,0.491,-105.591,-26.123,-16.968
0.002,-1.022,0.408,-102.112,-43.640,-19.775
-0.082,-0.941,0.317,-89.722,-56.458,-27.771
-0.159,-0.898,0.178,-68.481,-61.890,-38.391
-0.164,-0.811,0.032,-59.265,-68.420,-47.424
-0.183,-0.719,-0.042,-53.589,-80.078,-56.885
-0.186,-0.675,-0.093,-45.044,-91.248,-67.749
-0.159,-0.673,-0.122,-27.649,-97.351,-76.233
-0.112,-0.650,-0.156,-8.301,-99.182,-77.759
-0.084,-0.628,-0.147,15.259,-98.877,-74.707
-0.053,-0.611,-0.133,37.659,-93.750,-69.336
0.028,-0.627,-0.165,65.735,-80.750,-61.951
0.098,-0.608,-0.219,103.210,-64.148,-49.744
0.105,-0.493,-0.271,145.691,-52.856,-31.860
0.040,-0.307,-0.325,179.016,-47.791,-13.855
-0.035,-0.011,-0.313,180.176,-48.584,-2.197
-0.065,0.245,-0.142,147.339,-54.382,-14.954
-0.060,0.199,-0.091,119.385,-51.819,-52.002
-0.002,0.072,-0.095,90.332,-42.419,-87.524
0.062,-0.354,-0.158,64.453,-40.222,-104.614
0.150,-0.292,0.018,16.235,-48.035,-86.792
0.230,-0.065,0.291,18.066,-48.340,-60.791
0.305,0.137,0.485,45.471,-33.936,-42.664
0.357,0.233,0.566,67.627,-9.399,-32.410
0.412,0.298,0.526,83.801,18.066,-20.386
0.464,0.435,0.479,80.322,44.189,-4.822
0.506,0.667,0.490,67.505,63.354,11.047
0.562,0.885,0.514,57.800,76.660,20.630
0.555,0.917,0.562,57.129,77.820,18.311
0.563,0.861,0.587,56.213,76.233,13.000
0.452,0.805,0.836,69.580,63.538,13.000
0.345,0.694,1.140,76.538,57.922,12.207
0.310,0.617,1.283,72.815,77.026,12.634
0.316,0.635,1.365,68.237,97.717,18.311
0.397,0.692,1.330,51.331,112.915,23.315
0.531,0.720,1.214,22.583,118.530,25.330
0.698,0.712,1.043,2.502,117.615,26.062
0.766,0.663,1.047,2.014,104.309,31.433
0.731,0.586,1.202,17.456,88.013,42.908
0.713,0.780,1.323,48.462,80.444,47.485
0.617,0.468,1.371,70.801,76.965,36.987
0.595,0.278,1.469,65.674,67.993,46.326
0.562,0.274,1.592,56.274,59.998,67.017
0.484,0.212,1.650,58.044,54.138,77.332
0.387,0.123,1.660,55.054,48.401,80.566
0.292,-0.101,1.661,42.297,42.847,81.787
0.226,-0.141,1.619,33.081,36.194,89.172
0.139,-0.153,1.655,31.982,21.179,90.027
0.046,-0.230,1.714,26.611,7.874,78.186
0.003,-0.250,1.736,31.799,3.296,56.030
-0.069,-0.551,1.726,45.471,2.258,26.611
-0.065,-0.772,1.708,34.668,5.798,14.160
-0.028,-0.884,1.624,27.283,10.986,18.311
0.033,-0.760,1.502,19.592,13.062,31.616
0.068,-0.728,1.392,22.278,8.850,36.011
0.069,-0.739,1.320,22.888,-0.793,34.119
0.029,-0.813,1.306,25.024,-12.756,30.396
-0.001,-0.818,1.246,31.189,-20.691,28.687
-0.079,-0.817,1.170,36.804,-27.344,24.536
-0.103,-0.808,1.061,37.476,-31.006,14.709
-0.163,-0.920,0.953,32.837,-35.461,1.282
-0.109,-0.989,0.874,18.250,-40.527,-8.728
-0.138,-1.018,0.854,17.395,-49.011,-14.893
-0.159,-1.029,0.884,17.456,-57.373,-20.386
-0.179,-1.015,0.931,17.334,-58.350,-25.513
-0.154,-0.921,0.977,14.893,-53.040,-28.381
-0.149,-0.740,0.943,31.677,-42.053,-43.091
-0.191,-0.887,0.951,38.086,-30.029,-64.270
-0.152,-0.956,0.901,28.259,-17.090,-64.819
-0.110,-0.840,0.814,16.418,-3.052,-51.392
-0.074,-0.705,0.744,7.141,5.371,-37.903
-0.019,-0.538,0.709,-2.502,10.864,-27.771
0.060,-0.427,0.661,-3.113,13.062,-27.588
0.122,-0.417,0.679,-7.080,8.972,-34.363
0.168,-0.456,0.742,-12.512,2.625,-39.917
0.209,-0.481,0.777,-18.677,0.000,-38.940
0.226,-0.470,0.786,-23.193,2.258,-32.349
0.213,-0.418,0.825,-20.813,4.639,-24.048
0.203,-0.365,0.875,-20.752,4.150,-18.860
0.190,-0.344,0.917,-25.696,1.282,-17.395
0.176,-0.343,0.954,-26.550,-0.671,-16.907
0.149,-0.335,0.972,-22.400,-0.183,-15.320
0.133,-0.310,0.953,-19.958,2.136,-13.062
0.118,-0.288,0.937,-17.578,4.517,-11.658
0.116,-0.271,0.936,-16.907,5.127,-11.230
0.123,-0.283,0.912,-18.188,3.784,-11.841
0.120,-0.290,0.907,-19.104,2.625,-11.719
0.111,-0.293,0.910,-16.663,0.916,-9.705
0.087,-0.291,0.934,-13.123,-1.160,-7.385
0.079,-0.293,0.948,-11.230,-3.967,-5.859
0.065,-0.318,0.941,-12.451,-7.202,-5.737
0.050,-0.338,0.943,-17.639,-10.498,-5.615
0.027,-0.343,0.953,-20.386,-14.893,-4.517
0.000,-0.337,0.958,-18.250,-18.677,-4.028
-0.023,-0.324,0.944,-14.893,-21.973,-4.822
-0.035,-0.324,0.931,-10.986,-25.940,-7.324
-0.054,-0.337,0.945,-7.812,-31.433,-10.925
-0.091,-0.349,0.981,-6.226,-35.217,-14.404
-0.102,-0.342,0.999,-8.911,-34.790,-17.151

-0.248,-0.772,1.734,69.458,-9.460,135.925
-0.346,-0.920,1.705,59.387,-27.344,126.953
-0.410,-1.022,1.696,46.448,-41.687,120.239
-0.448,-1.053,1.809,21.790,-58.105,110.840
-0.342,-1.125,1.893,-2.319,-70.862,95.764
-0.273,-1.272,1.854,-10.193,-70.984,79.529
-0.202,-1.422,1.807,-19.409,-65.247,68.420
-0.133,-1.499,1.657,-29.663,-51.086,65.369
-0.081,-1.523,1.390,-35.522,-34.119,66.895
-0.102,-1.487,1.067,-38.147,-21.484,68.420
-0.166,-1.315,0.697,-30.762,-17.212,66.833
-0.211,-1.102,0.543,-22.827,-31.128,50.659
-0.189,-1.054,0.505,-17.273,-54.077,15.991
-0.076,-1.127,0.587,-15.015,-76.843,-22.827
0.030,-1.258,0.761,-17.944,-95.581,-55.969
0.145,-1.330,0.755,-20.874,-97.839,-76.477
0.243,-1.327,0.569,-24.963,-89.050,-85.388
0.247,-1.255,0.484,-27.161,-89.722,-88.928
0.219,-1.130,0.466,-30.457,-93.933,-90.210
0.212,-1.005,0.371,-35.034,-93.018,-94.299
0.166,-0.907,0.263,-37.415,-92.773,-100.098
0.076,-0.938,0.250,-40.588,-94.116,-103.882
0.051,-0.969,0.235,-49.744,-89.600,-95.520
0.056,-1.099,0.186,-61.218,-78.918,-72.571
0.105,-1.151,0.117,-76.477,-60.242,-25.391
0.164,-0.944,-0.084,-87.463,-38.330,46.631
0.093,-0.569,-0.144,-77.881,-36.133,114.990
0.067,-0.245,-0.116,-60.608,-29.602,151.672
0.107,-0.028,-0.134,-51.941,-13.184,160.095
0.181,0.729,-0.242,-46.692,3.784,148.437
0.229,1.054,-0.443,-41.382,8.850,82.520
0.255,0.546,-0.560,-11.047,-7.874,-27.649
0.208,0.094,-0.450,35.217,-28.748,-92.834
0.185,0.077,-0.241,49.316,-28.687,-94.360
0.205,0.358,-0.211,44.067,-10.620,-78.003
0.237,0.368,-0.330,52.490,8.972,-76.538
0.237,0.372,-0.275,58.167,13.550,-74.524
0.202,0.491,0.005,67.993,10.681,-66.528
0.201,0.401,0.312,75.867,15.076,-64.514
0.218,0.242,0.521,59.204,31.921,-61.035
0.234,0.293,0.630,12.451,56.702,-41.443
0.243,0.497,0.566,-21.057,84.351,-21.790
0.339,0.565,0.363,-45.593,112.000,-16.968
0.265,0.699,0.155,-47.424,125.732,-8.728
0.216,0.513,0.087,-32.166,125.122,-10.986
0.081,0.407,0.177,-43.152,107.361,-1.160
-0.002,0.357,0.387,-77.209,83.069,17.090
0.008,0.337,0.691,-117.676,61.890,35.217
0.056,0.369,0.991,-154.419,52.673,56.580
0.135,0.690,1.221,-171.448,53.772,80.933
0.235,0.950,1.322,-169.373,66.467,88.745
0.293,1.053,1.433,-179.810,81.787,75.073
0.298,1.091,1.560,-177.856,99.670,58.899
0.229,1.017,1.519,-137.207,121.338,46.814
0.111,0.902,1.326,-110.840,138.184,39.856
0.067,0.797,1.185,-112.305,133.667,45.227
0.058,0.744,1.139,-105.347,116.821,59.326
0.091,0.726,1.103,-89.600,98.267,76.721
-0.124,0.733,1.107,-65.002,74.707,94.299
0.030,0.884,1.114,-50.232,48.218,106.934
-0.113,0.989,1.517,-39.734,4.211,113.831
-0.072,0.897,1.883,-48.828,-15.259,102.966
0.036,0.681,1.632,-40.100,31.006,67.261
0.073,0.631,1.598,-18.555,36.316,52.612
0.106,0.555,1.592,-15.320,31.250,39.551
0.178,0.528,1.610,-27.954,24.719,35.400
0.215,0.498,1.589,-48.462,25.818,35.583
0.273,0.501,1.553,-62.683,30.945,40.710
0.280,0.541,1.491,-55.908,35.339,50.232
0.251,0.474,1.369,-36.438,33.142,51.392
0.226,0.365,1.365,-25.391,18.066,46.082
0.222,0.264,1.384,-20.020,3.174,39.917
0.229,0.203,1.286,-15.625,-3.540,37.170
0.237,0.165,1.173,-14.954,-11.719,35.950
0.270,0.049,1.164,-7.629,-26.855,32.959
0.240,-0.083,1.292,8.179,-46.326,34.912
0.157,-0.117,1.459,10.376,-57.251,40.894
0.105,-0.120,1.472,-3.784,-56.580,45.654
0.050,-0.118,1.433,-25.024,-52.795,45.471
0.012,-0.109,1.426,-51.636,-50.781,40.466
0.007,-0.094,1.333,-70.313,-49.011,34.424
-0.006,-0.068,1.191,-82.397,-49.072,28.870
-0.146,-0.208,1.123,-80.994,-51.941,20.325
-0.030,-0.339,1.083,-91.736,-57.007,20.691
0.014,-0.267,1.064,-89.844,-64.453,37.903
0.002,0.093,1.144,-73.303,-71.777,53.406
-0.111,0.139,1.132,-42.419,-63.416,30.579
-0.069,-0.043,1.063,-19.958,-54.016,0.000
-0.052,-0.121,1.072,-4.333,-54.016,-12.634
-0.060,-0.120,0.996,11.963,-46.265,-18.372
-0.060,-0.114,0.988,26.489,-42.297,-20.935
-0.001,-0.160,1.080,30.151,-39.612,-25.818
0.089,-0.224,1.088,33.264,-22.400,-27.222
0.125,-0.164,1.014,28.381,7.202,-16.479
0.095,-0.017,0.876,23.315,34.363,-6.531
0.096,0.073,0.747,20.142,48.340,-6.897
0.105,0.127,0.710,13.428,50.598,-15.015
0.089,0.105,0.702,14.709,49.316,-23.865
0.081,0.102,0.689,6.104,48.950,-30.884
0.096,0.157,0.659,-10.620,48.584,-37.170
0.055,0.206,0.650,-21.484,44.067,-45.715
0.045,0.192,0.697,-24.841,28.809,-52.368
0.031,0.174,0.840,-30.273,8.301,-57.739
-0.059,0.150,1.018,-34.912,-5.737,-60.242
0.032,0.095,1.157,-43.213,-7.874,-56.824
0.124,0.104,1.188,-47.058,1.465,-44.922
0.128,0.115,1.096,-32.043,18.921,-28.137
0.142,0.256,0.967,-25.391,31.555,-12.024
0.157,0.409,0.898,-26.489,34.302,-3.784
0.128,0.479,0.874,-32.349,32.288,-7.324
0.092,0.492,0.890,-34.607,27.527,-17.822
0.073,0.464,0.886,-29.175,23.315,-29.602
0.085,0.471,0.891,-25.452,18.494,-39.063
0.094,0.473,0.897,-22.217,12.451,-46.326
0.092,0.486,0.924,-20.264,4.578,-49.194
0.155,0.506,0.908,-17.700,-2.563,-49.438
0.246,0.435,0.870,-18.494,-6.287,-52.368
0.181,0.426,0.879,-16.907,-5.615,-48.889
0.164,0.467,0.848,-6.470,0.122,-39.429

0.397,1.269,1.186,55.237,17.822,34.729
0.411,1.287,1.447,26.978,16.907,37.476
0.302,1.064,1.696,1.892,13.184,35.461
0.158,0.821,1.858,-1.892,10.986,37.476
0.076,0.558,1.863,5.554,12.817,42.358
0.010,0.389,1.877,17.700,7.629,51.270
-0.069,0.261,1.883,23.254,-1.648,60.364
-0.181,0.234,1.943,22.583,-10.925,59.631
-0.291,0.054,1.994,15.808,-22.644,47.791
-0.363,-0.174,2.054,7.996,-36.499,35.217
-0.413,-0.420,2.148,5.676,-49.133,28.931
-0.376,-0.526,2.184,5.554,-54.260,30.151
-0.358,-0.544,2.237,7.019,-58.655,33.752
-0.355,-0.511,2.310,-3.052,-62.866,33.508
-0.266,-0.521,2.211,-16.724,-57.373,23.804
-0.164,-0.509,1.969,-27.588,-47.791,8.667
-0.096,-0.636,1.649,-36.316,-39.917,-10.010
-0.045,-0.746,1.360,-37.598,-36.621,-23.804
-0.011,-0.888,1.253,-41.077,-37.720,-28.809
0.018,-0.957,1.148,-41.931,-37.170,-26.489
-0.041,-1.002,1.091,-44.983,-33.997,-20.264
-0.058,-0.977,1.041,-40.222,-35.645,-17.761
-0.028,-1.000,1.026,-43.335,-37.598,-22.156
-0.010,-1.066,1.027,-40.894,-38.025,-30.029
0.065,-1.133,0.994,-36.377,-37.720,-34.119
0.127,-1.090,0.946,-38.330,-39.185,-31.494
0.184,-1.066,0.797,-34.790,-39.063,-31.799
0.212,-1.029,0.735,-17.700,-45.898,-33.142
0.243,-0.972,0.688,0.427,-54.077,-34.119
0.216,-0.921,0.610,12.695,-60.791,-36.072
0.149,-0.946,0.584,28.137,-68.848,-41.443
0.208,-0.856,0.584,28.870,-71.045,-42.358
0.212,-0.751,0.430,31.250,-63.110,-41.199
0.218,-0.726,0.109,41.565,-52.917,-43.396
0.219,-0.610,-0.123,32.471,-52.979,-44.006
0.257,-0.476,-0.125,10.681,-63.538,-41.687
0.273,-0.363,-0.202,-2.441,-66.284,-39.673
0.357,-0.212,-0.347,-9.338,-64.636,-38.330
0.347,-0.044,-0.414,-20.691,-66.467,-36.926
0.327,0.094,-0.407,-19.592,-70.679,-36.682
0.318,0.188,-0.365,-10.498,-72.754,-38.025
0.314,0.222,-0.272,-0.610,-68.848,-40.039
0.222,0.240,-0.150,3.662,-59.448,-37.781
0.188,0.277,-0.104,2.014,-43.823,-33.997
0.285,0.288,-0.108,-4.639,-30.884,-30.090
0.362,0.313,-0.140,-5.005,-22.827,-22.644
0.390,0.318,-0.169,3.052,-15.076,-14.648
0.329,0.354,-0.125,10.376,-13.916,-0.427
0.216,0.425,-0.051,22.400,-14.465,18.066
0.108,0.562,0.075,34.424,-13.245,31.616
0.065,0.670,0.214,44.495,-10.620,34.424
0.040,0.737,0.376,47.485,-4.761,27.771
-0.019,0.786,0.520,46.509,9.705,16.785
-0.054,0.688,0.710,43.945,30.029,2.930
0.053,0.734,0.638,39.429,56.824,-1.709
0.028,0.885,0.701,55.481,52.124,0.916
-0.027,0.948,1.000,59.692,34.119,-6.165
-0.106,0.955,1.204,54.443,44.250,-22.095
-0.179,0.821,1.196,59.937,77.393,-40.100
-0.189,0.764,1.020,63.965,114.197,-45.227
-0.149,0.807,0.916,70.984,127.563,-37.170
-0.098,0.882,1.015,62.988,120.789,-30.212
-0.037,0.887,1.214,48.401,108.582,-29.541
0.041,0.801,1.396,35.156,97.290,-29.053
0.087,0.788,1.515,26.184,87.891,-20.630
0.048,0.721,1.617,15.442,77.454,-10.620
0.001,0.643,1.735,-4.761,65.735,-0.122
-0.022,0.597,1.777,-23.804,55.908,13.489
-0.051,0.636,1.725,-35.156,54.077,26.306
-0.072,0.659,1.581,-41.443,59.021,32.654
-0.125,0.540,1.433,-37.476,65.735,31.189
-0.098,0.584,1.279,-27.405,70.923,30.701
-0.156,0.575,1.231,-4.089,62.439,22.278
-0.158,0.499,1.342,5.493,39.795,3.296
-0.131,0.385,1.554,-0.366,15.747,-11.475
-0.038,0.337,1.642,-4.639,4.883,-21.790
0.066,0.332,1.629,6.836,2.319,-34.119
0.142,0.352,1.562,17.029,1.709,-49.500
0.170,0.276,1.452,31.860,-0.854,-73.120
0.150,0.266,1.387,44.373,-11.353,-105.408
0.037,0.153,1.354,65.247,-28.809,-152.649
-0.141,0.071,1.432,69.763,-43.640,-213.196
-0.328,-0.723,1.360,65.063,-52.185,-255.127
-0.348,-1.363,1.514,27.222,-71.350,-196.350
-0.471,-1.286,1.500,41.016,-68.909,-92.163
-0.621,-1.193,1.269,100.342,-48.218,-11.902
-0.688,-0.842,1.191,49.561,-40.161,22.705
-0.692,-0.590,1.152,13.062,-41.016,32.349
-0.655,-0.649,1.079,3.296,-43.030,13.550
-0.507,-0.732,0.987,-17.151,-39.978,-5.615
-0.342,-0.676,0.904,-31.311,-32.776,-13.733
-0.229,-0.605,0.943,-33.020,-36.011,-18.982
-0.142,-0.561,1.028,-35.583,-41.321,-23.315
-0.063,-0.552,1.046,-35.828,-38.208,-25.269
-0.006,-0.525,1.037,-29.663,-31.799,-22.888
0.003,-0.495,1.060,-23.499,-24.353,-16.418
0.021,-0.416,1.008,-15.015,-11.963,-8.484
0.011,-0.385,0.890,1.526,-0.061,-3.235
-0.022,-0.331,0.777,20.325,10.925,-0.549
-0.068,-0.210,0.673,34.302,18.738,1.770
-0.091,-0.143,0.612,38.330,15.686,-4.700
-0.076,-0.190,0.614,28.259,4.700,-15.015
-0.081,-0.179,0.683,13.184,-4.822,-15.747
-0.082,-0.132,0.802,10.376,-10.986,-17.151
-0.079,-0.120,0.878,6.409,-10.437,-20.264
-0.051,-0.145,0.893,2.014,-5.920,-23.071
-0.034,-0.149,0.921,-0.366,-2.075,-22.705
-0.032,-0.144,0.960,-2.686,2.075,-19.653
-0.033,-0.140,0.976,-5.188,8.301,-15.991
-0.026,-0.117,0.948,-7.446,15.869,-11.475
-0.022,-0.088,0.884,-4.700,22.461,-7.019
-0.043,-0.058,0.835,4.333,26.489,-4.089
-0.071,-0.027,0.810,13.306,25.940,-2.563
-0.086,-0.014,0.817,16.724,20.081,-2.441
-0.119,-0.031,0.851,15.930,12.939,-3.784
-0.144,-0.044,0.911,9.460,9.277,-4.761
-0.147,-0.037,0.963,0.854,9.033,-4.578
-0.144,-0.045,0.975,-1.892,9.033,-6.165
-0.138,-0.060,0.977,-2.808,7.324,-8.911

-0.229,-0.095,2.452,-44.739,40.466,26.184
-0.236,-0.341,1.997,-69.153,65.796,-2.380
-0.194,-0.573,1.667,-70.740,73.914,-16.418
-0.016,-0.559,1.460,-57.617,63.782,-12.939
0.199,-0.580,1.462,-39.551,45.593,-16.846
0.337,-0.792,1.590,-22.461,24.902,-34.180
0.506,-1.048,1.724,-21.667,1.953,-44.495
0.635,-1.143,1.867,-26.184,-18.799,-39.490
0.607,-1.235,1.789,-27.039,-21.057,-32.166
0.502,-1.250,1.562,-29.602,-8.545,-22.156
0.529,-1.234,1.276,-32.166,0.732,-4.578
0.622,-1.146,1.138,-33.569,-6.592,15.503
0.609,-1.116,1.099,-30.212,-16.418,25.085
0.462,-1.185,1.069,-18.372,-13.062,22.827
0.358,-1.271,0.948,-13.123,-3.540,20.142
0.338,-1.257,0.751,-10.010,6.531,23.499
0.329,-1.090,0.461,-5.432,16.602,27.771
0.247,-1.091,0.224,0.122,14.282,16.541
0.216,-1.160,0.121,-9.277,-3.052,1.343
0.239,-1.144,0.132,-26.062,-26.245,-7.141
0.249,-1.123,0.069,-38.818,-40.466,-13.855
0.267,-1.041,-0.003,-47.791,-49.377,-18.250
0.266,-0.998,0.000,-53.345,-59.448,-23.071
0.239,-0.928,0.003,-53.162,-62.927,-27.771
0.238,-0.864,-0.036,-51.392,-62.439,-31.494
0.251,-0.834,-0.055,-46.692,-59.021,-35.645
0.244,-0.739,-0.100,-38.635,-50.171,-35.950
0.184,-0.662,-0.108,-27.893,-41.870,-34.973
0.134,-0.628,0.003,-29.663,-34.790,-39.124
0.117,-0.558,0.068,-34.485,-24.658,-43.884
0.123,-0.490,-0.008,-29.846,-11.230,-49.133
0.137,-0.429,-0.117,-24.048,-4.761,-52.124
0.171,-0.339,-0.224,-32.166,-5.371,-51.697
0.193,-0.251,-0.270,-43.762,-12.085,-49.072
0.202,-0.187,-0.242,-65.308,-24.963,-49.255
0.260,-0.145,-0.208,-89.478,-40.161,-49.194
0.319,-0.012,-0.073,-104.126,-45.776,-46.631
0.331,0.100,0.037,-100.525,-39.001,-43.762
0.319,0.172,0.089,-90.881,-26.123,-41.138
0.252,0.204,0.110,-77.148,-10.742,-35.706
0.154,0.304,0.116,-64.148,8.911,-23.804
0.145,0.536,0.047,-56.824,30.334,-10.559
0.210,0.692,-0.014,-53.406,40.833,-13.489
0.173,0.621,-0.001,-58.350,37.354,-33.691
0.190,0.529,0.071,-64.575,31.067,-47.180
0.242,0.717,0.166,-73.181,23.987,-44.495
0.204,0.832,0.221,-71.533,6.592,-50.232
0.178,0.769,0.290,-70.129,-7.141,-66.040
0.170,0.821,0.357,-65.430,-10.437,-66.833
0.138,0.887,0.539,-60.669,-13.306,-60.669
0.125,0.942,0.703,-63.477,-6.104,-53.650
0.170,1.056,0.716,-59.692,14.893,-44.739
0.250,1.176,0.716,-58.899,38.818,-36.926
0.405,1.329,0.991,-50.781,51.575,-32.471
0.490,1.240,0.969,-11.414,65.369,-36.194
0.467,1.196,0.982,-4.272,71.106,-31.006
0.331,1.033,1.389,-0.061,52.734,-25.085
0.340,0.860,1.578,-10.986,59.265,-14.648
0.395,0.839,1.525,-30.334,78.918,6.226
0.365,0.853,1.472,-40.161,86.243,22.522
0.291,0.824,1.345,-38.330,86.426,29.724
0.183,0.682,1.251,-32.227,82.336,32.776
0.115,0.684,1.182,-25.330,74.707,42.542
0.045,0.714,1.192,-13.672,62.378,48.157
0.059,0.651,1.209,0.732,47.363,43.457
0.045,0.575,1.291,13.794,29.114,37.781
0.047,0.534,1.356,20.752,12.573,35.461
0.088,0.442,1.399,24.292,1.282,29.175
0.139,0.335,1.442,30.029,-7.019,23.132
0.141,0.238,1.533,35.278,-18.738,22.583
0.147,0.144,1.604,33.325,-30.762,22.949
0.132,0.006,1.675,28.687,-38.330,21.851
0.128,-0.155,1.688,23.804,-38.269,19.287
0.138,-0.272,1.652,19.165,-34.241,19.714
0.115,-0.308,1.634,17.761,-29.114,21.912
0.111,-0.341,1.554,20.569,-24.719,21.179
0.084,-0.345,1.471,24.536,-24.353,18.616
0.099,-0.333,1.352,26.978,-27.039,12.939
0.094,-0.364,1.294,32.410,-39.917,6.409
0.090,-0.387,1.287,33.325,-52.429,1.221
0.104,-0.383,1.264,30.579,-55.603,-3.174
0.090,-0.376,1.235,29.846,-54.626,-7.141
0.092,-0.346,1.239,25.757,-53.406,-10.437
0.091,-0.325,1.244,18.921,-48.279,-13.489
0.110,-0.282,1.194,11.841,-38.208,-15.869
0.120,-0.257,1.097,3.296,-27.100,-18.799
0.123,-0.218,1.015,-2.747,-20.569,-19.836
0.123,-0.182,0.959,-7.080,-16.846,-20.020
0.123,-0.139,0.914,-8.240,-14.832,-19.165
0.092,-0.073,0.878,-7.935,-13.611,-18.188
0.095,-0.011,0.837,-8.789,-12.207,-19.775
0.112,0.028,0.831,-9.155,-12.878,-22.827
0.129,0.060,0.840,-6.592,-14.404,-24.597
0.142,0.091,0.850,-3.479,-15.198,-25.024
0.147,0.103,0.852,-2.319,-14.404,-24.475
0.137,0.119,0.885,-2.930,-11.780,-23.804
0.118,0.144,0.947,-4.395,-8.728,-21.667
0.105,0.162,0.977,-7.263,-5.371,-20.508
0.095,0.179,0.972,-10.071,-1.953,-19.409
0.076,0.207,0.952,-12.451,1.343,-18.738
0.096,0.178,0.958,-15.381,2.625,-19.714
0.111,0.192,0.926,-18.921,5.554,-17.395
0.105,0.210,0.896,-18.799,6.836,-14.465
0.096,0.202,0.880,-18.127,4.883,-13.245
0.085,0.208,0.885,-16.663,1.099,-12.512
0.079,0.204,0.913,-16.479,-1.953,-13.184
0.077,0.207,0.946,-16.418,-3.967,-14.343
0.083,0.213,0.978,-16.052,-6.775,-15.259
0.085,0.196,1.001,-16.235,-8.240,-16.174
0.089,0.194,1.007,-16.479,-8.789,-16.663
0.093,0.179,1.015,-17.395,-9.399,-17.761
0.101,0.174,1.019,-19.043,-9.460,-18.250
0.096,0.156,0.984,-18.677,-8.972,-18.372
0.090,0.110,0.930,-15.991,-8.667,-19.592
0.081,0.127,0.920,-14.038,-9.949,-19.043
0.060,0.123,0.949,-9.460,-14.160,-20.508
0.037,0.094,0.977,-5.127,-18.799,-22.888
0.019,0.113,1.025,-6.592,-22.522,-25.330
0.013,0.061,1.051,-10.132,-24.902,-32.227

0.333,1.113,1.345,-4.761,52.979,14.343
0.329,1.097,1.465,-19.043,59.814,15.625
0.261,1.030,1.626,-33.264,64.453,22.034
0.126,0.985,1.836,-39.551,64.026,30.762
-0.069,0.965,2.079,-42.480,58.228,39.612
-0.275,0.946,2.284,-48.096,51.758,44.067
-0.506,0.818,2.349,-51.453,46.570,39.429
-0.663,0.608,2.283,-44.861,45.166,32.837
-0.658,0.474,2.168,-30.334,43.457,30.884
-0.551,0.350,1.979,-18.555,37.476,34.729
-0.374,0.372,1.899,-11.536,22.522,41.443
-0.281,0.347,1.940,-10.193,1.831,39.612
-0.210,0.229,2.036,-26.001,-16.479,30.762
-0.150,0.047,2.104,-40.039,-24.719,18.433
-0.189,-0.170,2.169,-55.542,-22.705,6.409
-0.226,-0.444,2.097,-64.453,-4.395,-4.944
-0.245,-0.628,2.004,-67.322,22.766,-10.925
-0.226,-0.758,1.846,-69.397,49.561,-13.062
-0.185,-0.793,1.654,-67.566,65.369,-13.977
-0.128,-0.774,1.431,-72.937,67.444,-18.005
-0.037,-0.862,1.243,-80.627,55.969,-26.062
0.042,-0.977,1.061,-71.533,33.508,-35.095
0.135,-1.066,1.033,-72.449,4.883,-37.842
0.243,-1.085,1.046,-89.966,-12.695,-33.081
0.153,-1.124,1.024,-85.449,-20.264,-27.466
0.047,-1.079,0.824,-73.364,-11.414,-20.569
-0.016,-0.988,0.695,-59.753,-4.883,-16.785
-0.027,-0.957,0.550,-42.664,3.174,-20.630
0.013,-0.954,0.354,-22.034,12.817,-26.367
0.038,-0.939,0.156,-5.493,19.287,-27.954
0.089,-0.896,-0.072,9.949,25.146,-24.658
0.117,-0.721,-0.323,8.057,30.090,-17.761
0.143,-0.573,-0.498,12.817,24.536,-14.282
0.164,-0.450,-0.566,20.935,10.864,-13.855
0.175,-0.302,-0.586,23.132,-0.366,-13.916
0.134,-0.190,-0.549,24.170,-7.507,-16.785
0.153,-0.088,-0.568,29.785,-10.010,-21.118
0.222,-0.018,-0.570,39.490,-13.733,-25.269
0.361,0.059,-0.469,46.265,-22.095,-30.701
0.285,0.119,-0.324,57.739,-27.771,-36.621
0.270,0.171,-0.193,66.467,-25.940,-38.513
0.300,0.219,-0.100,75.562,-17.090,-36.926
0.335,0.254,-0.028,90.576,-6.714,-33.875
0.337,0.322,0.058,103.210,2.686,-27.588
0.348,0.394,0.068,102.783,13.367,-19.958
0.473,0.396,-0.026,106.689,21.484,-13.123
0.559,0.416,-0.003,101.379,21.362,-5.127
0.621,0.693,-0.067,94.299,16.724,6.042
0.575,0.915,0.120,78.613,-1.953,5.920
0.459,0.761,0.218,68.481,-15.564,-8.240
0.372,0.675,0.355,70.313,-28.015,-13.184
0.293,0.717,0.512,73.242,-36.987,-11.475
0.231,0.865,0.500,82.092,-35.095,-15.198
0.201,0.933,0.680,69.946,-46.387,-30.701
0.241,0.833,0.761,27.405,-44.922,-51.575
0.332,0.805,0.894,-12.451,-41.504,-60.547
0.417,0.828,1.067,-26.733,-40.955,-59.265
0.494,0.892,1.153,-41.382,-31.433,-55.908
0.564,0.879,1.112,-52.429,-16.113,-54.382
0.610,0.837,1.035,-54.321,-1.831,-54.871
0.600,0.833,1.008,-57.312,8.057,-57.129
0.549,0.850,1.547,-63.354,9.888,-61.096
0.420,0.661,1.508,-7.507,15.503,-59.143
0.324,0.519,1.470,19.836,36.255,-50.964
0.163,0.440,1.445,24.048,45.654,-35.706
0.037,0.379,1.471,25.635,44.128,-18.982
0.017,0.307,1.448,27.100,44.556,-1.587
0.026,0.360,1.362,32.654,43.274,14.343
0.018,0.381,1.331,39.978,37.354,20.325
-0.005,0.355,1.398,42.480,26.855,19.714
-0.041,0.301,1.503,39.185,16.968,18.066
-0.065,0.226,1.544,36.438,11.963,16.541
-0.075,0.158,1.576,34.790,6.470,17.029
-0.067,0.079,1.611,31.738,-1.038,18.494
-0.053,0.055,1.628,23.254,-8.728,20.508
-0.045,0.034,1.628,15.076,-18.738,18.860
-0.071,0.017,1.610,8.118,-30.273,10.986
-0.067,-0.071,1.602,2.136,-40.527,-0.488
-0.066,-0.191,1.518,-5.310,-46.265,-9.216
-0.075,-0.277,1.392,-8.118,-51.270,-12.695
-0.115,-0.327,1.341,-1.831,-60.852,-12.573
-0.164,-0.296,1.342,3.235,-72.266,-10.559
-0.194,-0.255,1.353,4.089,-81.726,-9.583
-0.225,-0.294,1.424,2.380,-86.121,-14.648
-0.204,-0.381,1.469,-2.075,-76.965,-21.484
-0.117,-0.425,1.452,-7.568,-56.396,-24.353
-0.064,-0.372,1.375,-14.771,-32.593,-25.757
-0.059,-0.420,1.238,-19.287,-11.597,-25.085
-0.057,-0.407,1.125,-22.766,2.991,-16.296
-0.054,-0.335,1.016,-25.635,12.451,-4.639
-0.067,-0.226,0.882,-25.024,16.602,3.174
-0.092,-0.154,0.788,-23.621,15.503,3.357
-0.104,-0.145,0.758,-20.264,10.803,-1.770
-0.096,-0.105,0.771,-16.541,4.456,-5.981
-0.087,-0.060,0.799,-15.259,-1.831,-9.888
-0.070,-0.033,0.840,-13.855,-5.920,-14.465
-0.051,-0.017,0.881,-12.878,-6.287,-18.188
-0.014,0.005,0.902,-11.719,-3.662,-20.203
0.017,0.026,0.907,-10.803,-0.244,-21.057
0.049,0.044,0.907,-10.376,3.723,-21.362
0.070,0.054,0.918,-9.155,7.568,-20.813
0.087,0.070,0.942,-8.118,10.559,-18.616
0.095,0.086,0.937,-8.423,14.343,-16.052
0.097,0.107,0.890,-8.606,19.287,-13.428
0.095,0.131,0.848,-7.568,23.071,-11.414
0.094,0.167,0.845,-5.676,24.109,-10.254
0.090,0.176,0.863,-4.700,22.766,-10.986
0.089,0.177,0.896,-4.517,20.142,-12.512
0.113,0.178,0.909,-4.578,16.968,-13.916
0.122,0.188,0.930,-4.944,12.451,-14.771
0.130,0.187,0.967,-5.249,7.202,-15.320
0.140,0.161,1.001,-6.836,4.272,-16.418
0.151,0.130,1.020,-8.545,4.272,-16.235
0.159,0.131,1.016,-8.911,5.981,-13.794
0.172,0.100,1.007,-8.667,7.935,-12.024
0.169,0.098,0.935,-7.019,10.193,-9.277
0.135,0.144,0.901,-2.136,8.484,-6.653
0.136,0.161,0.891,1.526,3.723,-8.301
0.124,0.134,0.947,2.563,-2.502,-10.498

0.583,0.830,1.349,43.762,5.554,35.095
0.542,0.806,1.520,36.194,10.620,34.912
0.462,0.775,1.664,27.710,12.756,32.776
0.347,0.729,1.838,23.437,11.719,27.954
0.104,0.610,2.053,14.954,6.592,20.935
-0.151,0.494,2.279,3.296,0.732,17.944
-0.390,0.415,2.448,-7.202,-3.296,21.912
-0.560,0.342,2.531,-21.301,-3.418,29.785
-0.639,0.279,2.563,-35.156,-1.038,37.170
-0.625,0.288,2.594,-43.823,2.502,38.818
-0.576,0.226,2.566,-52.856,7.263,29.541
-0.488,0.086,2.563,-63.904,9.766,14.954
-0.391,-0.115,2.498,-82.886,9.399,2.258
-0.313,-0.342,2.426,-100.159,13.733,-5.249
-0.305,-0.543,2.364,-106.995,25.330,-7.385
-0.383,-0.700,2.246,-104.370,42.053,-3.845
-0.442,-0.710,2.016,-97.900,62.683,2.869
-0.477,-0.687,1.739,-92.285,76.965,4.211
-0.431,-0.707,1.388,-92.834,78.918,-4.883
-0.302,-0.757,1.277,-104.004,57.922,-18.066
-0.209,-0.923,1.254,-108.521,27.771,-34.180
-0.115,-1.092,1.162,-119.751,10.803,-43.030
-0.055,-1.177,1.048,-125.977,7.263,-38.818
-0.052,-1.132,0.901,-125.549,7.446,-26.672
-0.140,-1.036,0.723,-114.807,13.245,-13.184
-0.240,-0.972,0.414,-88.745,26.794,-3.845
-0.288,-0.829,0.149,-65.735,33.325,1.831
-0.284,-0.727,-0.030,-54.016,31.250,0.305
-0.247,-0.696,-0.143,-49.133,24.536,-6.042
-0.201,-0.668,-0.170,-45.349,12.756,-11.414
-0.171,-0.636,-0.136,-36.133,2.136,-13.733
-0.145,-0.597,-0.111,-17.700,-1.953,-13.794
-0.113,-0.548,-0.162,7.263,-0.977,-13.794
-0.194,-0.518,-0.259,38.574,0.793,-14.771
-0.214,-0.391,-0.341,56.458,1.038,-11.902
-0.157,-0.285,-0.360,65.125,-4.883,-15.625
-0.110,-0.220,-0.278,57.922,-14.526,-26.428
-0.048,-0.199,-0.215,42.908,-21.423,-39.612
0.024,-0.200,-0.159,31.677,-24.780,-50.537
0.123,-0.180,-0.108,20.752,-27.100,-57.129
0.208,-0.109,-0.126,-0.549,-26.306,-60.242
0.274,-0.059,-0.078,-16.296,-30.945,-61.768
0.318,-0.033,0.029,-16.296,-37.231,-60.242
0.317,0.056,0.133,-13.489,-33.813,-54.565
0.312,0.116,0.140,0.793,-19.287,-48.584
0.336,0.183,0.130,26.794,-1.831,-41.809
0.386,0.278,0.083,56.580,14.221,-30.518
0.498,0.481,-0.032,83.984,28.076,-17.822
0.649,0.635,-0.141,105.957,35.278,-9.827
0.756,0.809,-0.298,101.074,36.438,-6.287
0.875,0.890,-0.228,76.843,13.306,-10.559
0.904,0.883,0.027,38.025,-14.038,-19.348
0.900,0.746,0.328,14.648,-31.677,-25.146
0.894,0.569,0.566,11.597,-34.302,-22.278
0.868,0.537,0.860,10.925,-28.015,-4.150
0.780,0.654,1.171,4.333,-15.869,18.250
0.682,0.879,1.475,-7.629,5.005,26.184
0.635,0.806,1.482,1.038,37.964,12.451
0.602,0.685,1.420,5.310,62.256,3.418
0.603,0.647,1.369,3.174,73.547,7.812
0.625,0.697,1.266,5.676,78.613,18.921
0.674,0.779,1.093,19.409,79.346,29.480
0.719,0.833,0.896,34.485,75.745,34.119
0.738,0.778,0.742,46.082,62.317,31.433
0.765,0.718,0.741,42.419,37.903,29.663
0.767,0.657,0.906,23.987,6.897,30.212
0.720,0.567,1.140,-1.526,-21.362,32.288
0.641,0.505,1.353,-26.184,-38.757,36.011
0.511,0.440,1.518,-49.255,-45.166,41.504
0.356,0.396,1.613,-67.200,-40.833,46.814
0.234,0.402,1.641,-75.684,-31.982,53.772
0.135,0.407,1.609,-78.674,-21.545,58.044
0.128,0.524,1.832,-70.679,-11.597,58.289
0.033,0.319,1.523,-20.264,1.160,53.284
-0.002,0.229,1.293,-4.578,13.428,54.749
-0.031,0.277,1.226,2.625,10.132,59.509
-0.070,0.267,1.244,6.042,1.709,61.768
-0.057,0.180,1.220,6.897,-4.944,61.584
-0.052,0.138,1.258,1.587,-14.954,63.538
-0.067,0.065,1.340,-3.662,-26.245,65.186
-0.068,0.085,1.406,-8.423,-31.250,68.420
-0.072,0.123,1.396,-14.160,-27.771,68.726
-0.095,0.125,1.338,-14.343,-20.020,58.411
-0.158,0.082,1.286,-6.165,-13.306,42.664
-0.196,0.003,1.228,4.761,-6.836,28.381
-0.199,-0.022,1.145,10.803,-0.671,20.020
-0.213,-0.036,1.093,13.733,0.793,13.916
-0.187,-0.035,1.053,14.343,0.427,8.606
-0.157,-0.010,1.006,14.465,-0.671,3.479
-0.121,0.026,0.980,15.869,-4.944,-2.319
-0.095,0.052,1.006,16.663,-11.536,-9.399
-0.079,0.006,0.995,18.616,-13.733,-20.081
-0.063,0.064,1.067,16.724,-13.000,-27.893
-0.029,0.081,1.084,24.353,-9.460,-35.095
0.024,0.013,0.964,35.950,0.427,-44.250
0.093,0.008,0.848,40.466,4.944,-47.180
0.144,0.011,0.781,35.156,2.625,-46.692
0.157,0.021,0.783,27.344,-3.967,-44.739
0.193,0.038,0.813,19.653,-8.179,-42.297
0.148,0.014,0.874,6.165,-8.728,-39.063
0.096,0.089,0.941,-2.930,-8.179,-33.630
0.072,0.198,0.977,-1.038,-7.629,-30.579
0.072,0.243,0.978,-5.066,-6.348,-34.302
0.064,0.211,0.990,-8.057,-6.958,-41.199
0.074,0.172,0.996,-6.592,-7.080,-44.373
0.101,0.154,0.977,-2.808,-2.197,-43.274
0.128,0.157,0.955,0.122,6.348,-40.344
0.124,0.161,0.930,4.639,12.878,-36.987
0.149,0.202,0.902,2.869,17.212,-34.180
0.185,0.201,0.868,-7.385,18.982,-33.325
0.224,0.173,0.863,-15.747,16.174,-33.386
0.263,0.198,0.891,-27.161,9.155,-31.982
0.250,0.219,0.903,-27.405,-0.916,-32.776
0.197,0.209,0.966,-25.574,-9.216,-34.180
0.125,0.227,0.997,-34.668,-12.390,-33.081
0.069,0.225,0.947,-40.039,-10.193,-32.654
0.097,0.242,0.940,-50.659,-12.024,-33.020
0.108,0.267,0.982,-62.439,-17.822,-36.987
0.138,0.267,1.009,-73.242,-18.372,-43.518

-0.147,-0.687,2.175,117.554,-23.376,30.945
-0.125,-0.821,2.192,96.802,-7.629,16.296
-0.062,-0.794,2.074,70.740,15.015,3.784
0.090,-0.852,1.821,38.574,33.264,-11.902
0.281,-0.971,1.424,15.442,48.035,-28.381
0.452,-1.085,1.113,-0.244,50.415,-31.616
0.598,-1.083,0.919,-1.099,43.335,-20.691
0.648,-0.975,0.873,12.939,34.851,-5.981
0.701,-0.856,0.853,31.616,24.841,3.723
0.749,-0.909,0.858,31.067,9.460,3.296
0.782,-0.903,0.912,24.475,-7.202,4.028
0.809,-0.850,0.965,15.442,-19.348,5.737
0.792,-0.832,1.037,1.709,-23.560,-0.549
0.769,-0.935,1.016,-8.728,-16.968,-15.381
0.752,-0.966,0.874,-26.001,-4.700,-29.236
0.754,-0.987,0.757,-40.466,0.854,-41.382
0.744,-0.952,0.684,-34.180,3.235,-52.917
0.723,-0.929,0.401,-23.743,7.324,-65.186
0.753,-0.852,0.321,-34.485,-1.282,-80.688
0.786,-0.781,0.374,-38.879,-23.987,-91.614
0.795,-0.693,0.384,-33.997,-39.978,-95.154
0.773,-0.637,0.389,-37.476,-50.598,-95.276
0.747,-0.583,0.380,-45.837,-57.739,-92.651
0.760,-0.418,0.532,-56.885,-61.462,-85.754
0.724,-0.354,0.278,-53.040,-50.049,-80.750
0.720,-0.301,0.059,-64.758,-35.706,-77.209
0.666,-0.247,-0.006,-61.157,-33.997,-69.336
0.598,-0.156,-0.010,-54.810,-32.288,-59.998
0.516,-0.057,-0.057,-50.659,-31.555,-51.880
0.451,-0.021,-0.089,-45.654,-34.485,-47.729
0.402,0.027,-0.151,-40.344,-37.659,-45.044
0.339,0.024,-0.199,-30.640,-43.030,-41.321
0.256,0.099,-0.211,-22.827,-44.006,-36.987
0.204,0.097,-0.218,-17.151,-36.865,-34.851
0.155,0.164,-0.167,-18.555,-24.841,-36.560
0.140,0.222,-0.168,-15.930,-15.625,-35.522
0.087,0.164,-0.111,-6.714,-10.681,-36.194
0.025,0.232,0.047,-2.808,-7.446,-36.499
-0.009,0.196,0.100,0.305,-0.549,-39.490
-0.059,0.161,0.081,-2.380,8.728,-43.640
-0.114,0.186,0.188,-7.507,13.794,-45.471
-0.143,0.228,0.207,-11.169,23.682,-50.171
-0.146,0.286,0.201,-14.893,35.522,-55.969
-0.170,0.310,0.214,-16.663,40.833,-58.533
-0.146,0.389,0.247,-18.005,43.701,-57.678
-0.152,0.456,0.302,-13.123,43.030,-59.143
-0.119,0.507,0.321,-1.160,49.805,-60.547
-0.071,0.493,0.474,4.700,51.025,-59.143
-0.034,0.408,0.594,8.118,46.936,-49.805
0.002,0.568,1.027,-5.493,42.053,-28.564
0.009,0.629,1.207,-20.508,48.401,-7.568
-0.041,0.594,1.289,-44.617,67.261,5.432
-0.111,0.640,1.286,-72.083,82.703,19.653
-0.159,0.702,1.200,-96.252,90.149,30.762
-0.151,0.748,1.170,-105.530,85.754,35.645
-0.158,0.745,1.215,-98.083,75.012,36.804
-0.160,0.756,1.289,-88.074,65.979,37.842
-0.174,0.720,1.383,-77.271,56.824,37.842
-0.155,0.698,1.435,-72.021,51.270,40.527
-0.141,0.649,1.479,-72.266,47.363,43.518
-0.132,0.627,1.485,-68.970,44.312,46.875
-0.128,0.607,1.484,-64.148,40.649,50.476
-0.099,0.580,1.505,-59.998,35.889,52.368
-0.095,0.544,1.545,-51.208,28.748,54.810
-0.082,0.543,1.552,-40.039,23.132,57.190
-0.035,0.485,1.526,-28.687,21.667,54.810
0.026,0.389,1.531,-17.700,19.287,49.622
0.072,0.309,1.563,-5.676,13.977,47.241
0.078,0.240,1.588,10.986,8.728,47.241
0.122,0.155,1.566,23.499,5.005,45.898
0.123,0.065,1.588,33.752,-2.197,44.434
0.120,-0.005,1.595,41.748,-10.132,44.312
0.141,-0.052,1.557,45.837,-14.526,40.894
0.184,-0.119,1.511,44.006,-14.771,31.189
0.268,-0.160,1.449,43.091,-15.747,21.484
0.333,-0.250,1.464,44.189,-24.841,13.794
0.392,-0.302,1.480,39.368,-30.396,8.301
0.447,-0.322,1.412,32.349,-28.259,6.348
0.453,-0.430,1.205,28.259,-25.330,6.409
0.496,-0.336,1.263,19.958,-31.433,11.902
0.534,-0.308,1.244,18.982,-34.180,13.306
0.564,-0.436,1.105,16.174,-26.489,7.568
0.527,-0.475,1.046,17.639,-22.827,7.996
0.471,-0.486,1.031,16.907,-22.217,9.766
0.439,-0.484,1.005,14.465,-21.790,8.057
0.410,-0.476,0.976,13.367,-22.888,4.150
0.391,-0.458,0.937,12.146,-23.865,-0.610
0.375,-0.435,0.908,12.634,-24.597,-5.432
0.364,-0.408,0.887,12.695,-25.330,-10.864
0.345,-0.379,0.855,11.963,-24.414,-15.808
0.336,-0.331,0.817,10.254,-21.301,-19.531
0.333,-0.292,0.797,7.385,-17.334,-22.705
0.323,-0.242,0.793,7.019,-14.648,-23.315
0.306,-0.192,0.807,6.531,-12.878,-22.400
0.289,-0.147,0.828,6.470,-11.414,-20.508
0.267,-0.111,0.838,4.028,-6.958,-18.066
0.239,-0.056,0.834,-3.357,-1.099,-14.893
0.220,-0.019,0.833,-8.301,1.953,-11.475
0.183,-0.000,0.859,-10.193,2.502,-8.362
0.165,0.018,0.868,-11.414,2.930,-6.104
0.148,0.029,0.863,-10.010,4.150,-5.310
0.125,0.026,0.864,-9.583,6.592,-6.226
0.119,0.047,0.846,-11.475,10.071,-7.141
0.113,0.050,0.851,-10.437,9.583,-7.812
0.103,0.047,0.881,-6.897,6.104,-7.812
0.098,0.047,0.909,-4.700,3.601,-7.263
0.095,0.048,0.923,-3.662,3.479,-6.531
0.089,0.040,0.936,-3.723,4.944,-6.042
0.098,0.045,0.936,-5.310,6.348,-5.005
0.094,0.044,0.946,-5.798,5.493,-3.235
0.096,0.035,0.968,-6.348,3.113,-1.831
0.089,0.038,1.000,-6.287,1.770,-0.427
0.095,0.025,1.009,-3.967,2.808,0.793
0.104,0.011,1.002,-1.953,5.554,1.953
0.105,0.009,0.984,-2.991,8.728,3.113
0.107,0.009,0.979,-5.066,10.193,3.357
0.116,-0.004,0.974,-3.967,8.972,3.296
0.124,-0.012,0.982,-0.122,7.324,3.479
0.131,-0.021,1.000,3.601,5.188,3.601

-0.180,-0.617,2.245,66.406,9.155,55.359
-0.132,-0.809,2.271,61.279,4.456,45.166
-0.012,-0.920,2.174,34.058,2.380,37.598
