aX,aY,aZ,gX,gY,gZ
0.639,0.523,1.906,-96.069,3.967,-85.571
0.699,0.646,1.922,-82.031,-10.376,-92.957
0.759,0.756,1.950,-76.904,-23.560,-93.506
0.807,0.850,1.954,-82.458,-30.640,-89.722
0.801,0.921,1.893,-96.008,-30.579,-82.458
0.733,1.049,1.675,-106.750,-27.222,-72.144
0.631,1.231,1.396,-106.689,-26.306,-61.035
0.531,1.414,1.087,-108.887,-32.715,-54.504
0.555,1.570,0.888,-109.375,-48.096,-52.429
0.640,1.732,0.712,-102.295,-65.369,-52.246
0.746,1.759,0.627,-87.708,-82.947,-54.138
0.793,1.726,0.644,-80.627,-102.295,-54.626
0.769,1.679,0.680,-80.750,-114.990,-50.903
0.669,1.632,0.664,-80.505,-117.249,-45.410
0.596,1.638,0.606,-72.937,-116.089,-38.086
0.566,1.553,0.477,-42.847,-115.723,-36.011
0.545,1.490,0.340,-15.442,-113.159,-39.368
0.516,1.314,0.129,-5.676,-108.337,-43.945
0.449,1.141,-0.143,-17.700,-101.013,-40.405
0.455,1.012,-0.201,-48.096,-95.459,-18.799
0.407,1.094,-0.230,-51.697,-96.741,13.245
0.376,1.104,-0.186,-47.485,-99.792,37.109
0.369,0.986,-0.222,-37.231,-94.604,49.438
0.339,0.844,-0.243,-23.621,-83.069,60.852
0.331,0.761,-0.264,-24.414,-65.918,76.965
0.346,0.707,-0.267,-31.982,-45.654,92.407
0.322,0.636,-0.243,-26.855,-30.396,103.821
0.315,0.564,-0.247,-13.550,-16.602,110.596
0.294,0.456,-0.209,6.287,-10.010,111.267
0.307,0.411,-0.183,26.611,-9.399,109.863
0.322,0.345,-0.222,44.495,-9.033,106.079
0.326,0.254,-0.243,66.772,-10.742,99.915
0.331,0.190,-0.204,85.327,-14.282,95.642
0.318,0.083,-0.198,101.868,-16.541,91.858
0.301,-0.023,-0.195,112.671,-16.602,89.050
0.334,-0.099,-0.189,112.244,-13.977,90.881
0.329,-0.196,-0.130,108.154,-9.094,94.177
0.345,-0.317,-0.031,104.492,-4.578,101.135
0.343,-0.407,0.034,104.492,4.456,110.962
0.302,-0.511,0.039,110.046,15.686,118.652
0.231,-0.588,0.083,111.877,24.170,122.803
0.208,-0.612,0.124,110.413,29.907,125.305
0.202,-0.638,0.215,111.450,32.104,123.108
0.157,-0.735,0.349,113.892,29.785,114.563
0.102,-0.876,0.495,111.511,26.611,103.333
0.070,-0.944,0.641,107.178,23.743,97.412
0.016,-0.990,0.743,102.478,23.010,93.811
-0.039,-0.983,0.813,96.741,23.743,90.759
-0.069,-0.944,0.813,88.806,25.940,86.975
-0.094,-0.874,0.796,79.285,30.029,81.909
-0.059,-0.807,0.730,68.420,36.560,75.378
-0.066,-0.750,0.772,53.406,43.091,68.542
-0.079,-0.693,0.802,39.734,45.715,62.561
-0.123,-0.615,0.801,36.743,47.302,56.335
-0.160,-0.600,0.824,37.415,49.683,49.316
-0.163,-0.630,0.888,34.607,52.063,41.565
-0.194,-0.661,0.988,27.954,52.002,33.508
-0.237,-0.649,1.123,20.874,51.819,26.306
-0.281,-0.628,1.267,13.916,54.443,16.724
-0.316,-0.591,1.348,6.042,59.570,3.784
-0.304,-0.557,1.348,-4.761,68.420,-9.705
-0.212,-0.424,1.372,-20.508,79.895,-21.545
-0.116,-0.276,1.449,-32.532,87.891,-35.339
-0.065,-0.285,1.635,-29.114,87.036,-53.223
-0.068,-0.292,1.604,-22.339,90.271,-63.721
-0.025,-0.268,1.664,-39.185,103.088,-64.026
0.085,-0.107,1.538,-43.213,121.216,-61.829
0.111,0.060,1.373,-42.053,123.779,-69.092
0.285,0.134,1.333,-51.941,102.539,-86.365
0.310,0.147,1.360,-40.100,66.040,-101.624
0.264,0.097,1.310,-27.588,40.833,-110.413
0.235,0.131,1.346,-25.574,18.982,-110.840
0.197,0.172,1.441,-30.151,-5.066,-110.962
0.193,0.215,1.542,-36.133,-21.057,-111.694
0.196,0.234,1.572,-40.894,-26.367,-110.840
0.231,0.287,1.561,-51.331,-23.437,-106.018
0.280,0.356,1.530,-65.857,-15.015,-98.450
0.353,0.465,1.430,-80.933,-4.761,-88.928
0.391,0.587,1.313,-85.388,-0.427,-79.529
0.393,0.681,1.218,-77.759,-0.793,-73.547
0.370,0.725,1.118,-62.195,-3.540,-70.984
0.336,0.725,1.048,-46.814,-9.399,-68.970
0.302,0.729,1.017,-33.447,-17.578,-64.270
0.289,0.746,1.013,-22.034,-22.766,-58.594
0.287,0.738,0.995,-11.719,-23.743,-54.321
0.291,0.691,0.976,-3.967,-22.156,-49.927
0.298,0.639,0.980,-3.296,-19.470,-42.969
0.298,0.625,0.994,-6.836,-12.817,-32.715
0.295,0.604,0.986,-7.874,-4.089,-21.851
0.285,0.553,0.943,-10.132,3.967,-12.634
0.278,0.536,0.879,-14.038,9.460,-4.272
0.251,0.518,0.818,-10.620,9.766,1.587
0.209,0.459,0.779,-4.089,7.080,3.784
0.186,0.403,0.763,0.366,2.930,6.042
0.176,0.387,0.759,3.113,-1.526,10.376
0.165,0.365,0.741,5.981,-4.089,13.550
0.157,0.352,0.738,7.446,-6.042,14.709
0.144,0.326,0.783,7.629,-7.751,14.832
0.144,0.310,0.849,6.714,-8.667,14.709
0.149,0.289,0.881,3.662,-7.690,14.160
0.150,0.269,0.890,-0.427,-6.409,13.611
0.163,0.275,0.887,-6.714,-4.028,13.977
0.180,0.278,0.891,-11.902,-1.160,13.672
0.195,0.261,0.907,-13.245,1.404,12.939
0.206,0.257,0.914,-14.832,2.136,12.390
0.209,0.247,0.882,-14.221,2.869,12.024
0.196,0.234,0.833,-9.949,3.906,11.414
0.176,0.234,0.831,-4.883,4.150,11.536
0.168,0.225,0.884,-2.563,3.357,10.681
0.174,0.213,0.944,-2.686,2.258,9.583
0.184,0.205,0.989,-4.944,2.197,9.644
0.193,0.209,0.996,-5.920,4.089,10.559
0.192,0.212,0.971,-6.226,7.141,11.658
0.186,0.223,0.944,-7.202,8.667,12.878
0.176,0.224,0.943,-8.850,8.728,13.672
0.162,0.220,0.956,-9.338,8.362,14.099
0.159,0.225,0.948,-9.216,8.484,14.404
0.155,0.228,0.930,-8.179,7.935,14.221
0.153,0.230,0.930,-7.263,6.348,13.550

-0.201,-0.447,2.046,-84.900,56.641,-53.833
-0.162,-0.318,2.084,-95.947,57.068,-69.641
-0.094,-0.161,2.088,-112.427,59.448,-87.219
-0.009,0.065,2.062,-127.930,62.988,-103.088
0.098,0.351,1.945,-135.254,66.711,-114.563
0.271,0.674,1.786,-146.362,62.378,-125.366
0.490,1.058,1.740,-163.025,47.363,-134.338
0.750,1.408,1.664,-167.236,30.090,-144.165
1.005,1.702,1.550,-165.100,11.719,-154.724
1.223,1.915,1.306,-158.142,-8.240,-159.790
1.396,2.034,0.940,-142.822,-31.982,-149.841
1.537,2.192,0.684,-122.070,-66.162,-135.742
1.643,2.269,0.552,-96.741,-104.004,-127.258
1.638,2.164,0.460,-75.989,-135.925,-115.356
1.539,2.026,0.537,-61.890,-160.583,-100.525
1.410,1.877,0.602,-54.443,-168.030,-86.609
1.279,1.674,0.526,-49.194,-157.837,-75.378
1.210,1.411,0.445,-49.744,-143.372,-67.566
1.134,1.088,0.290,-45.959,-126.404,-56.030
1.086,0.784,0.148,-44.556,-109.985,-34.546
0.931,0.554,0.009,-57.678,-99.731,-0.366
0.773,0.522,-0.034,-72.266,-94.604,40.649
0.649,0.641,-0.031,-86.487,-89.478,76.965
0.551,0.642,0.018,-88.806,-78.796,94.727
0.462,0.541,-0.032,-78.247,-60.303,100.647
0.429,0.498,-0.104,-65.796,-40.222,107.727
0.404,0.459,-0.193,-50.903,-24.902,115.723
0.384,0.408,-0.240,-31.006,-15.686,122.375
0.366,0.360,-0.243,-10.986,-9.460,127.380
0.336,0.314,-0.218,6.836,-6.958,130.188
0.304,0.273,-0.198,23.743,-7.446,130.066
0.305,0.183,-0.197,38.269,-8.118,126.892
0.308,0.147,-0.224,56.885,-7.751,124.084
0.311,0.074,-0.251,75.256,-7.202,120.911
0.304,-0.014,-0.290,91.187,-6.836,117.798
0.293,-0.077,-0.291,98.572,-7.690,118.164
0.282,-0.113,-0.287,99.487,-9.094,121.277
0.267,-0.169,-0.300,97.351,-9.705,123.779
0.233,-0.243,-0.294,99.670,-9.705,125.916
0.190,-0.326,-0.144,100.037,-12.207,127.014
0.120,-0.436,0.084,103.210,-10.559,127.502
0.054,-0.489,0.135,112.366,1.770,130.188
-0.044,-0.577,0.209,118.652,10.315,130.676
-0.084,-0.588,0.270,121.826,13.794,130.920
-0.135,-0.523,0.347,122.559,13.000,122.681
-0.211,-0.667,0.415,129.272,7.568,105.774
-0.339,-0.806,0.496,135.803,5.859,98.267
-0.432,-0.859,0.685,137.878,6.409,104.004
-0.459,-0.814,0.716,137.268,14.343,115.356
-0.417,-0.731,0.663,131.226,21.851,122.559
-0.422,-0.607,0.614,131.897,22.400,122.375
-0.434,-0.539,0.641,129.700,17.395,113.220
-0.448,-0.493,0.751,121.460,10.498,95.581
-0.406,-0.561,0.831,113.647,8.972,73.364
-0.350,-0.612,0.975,103.821,14.648,56.946
-0.298,-0.652,1.154,84.229,25.146,48.645
-0.234,-0.694,1.298,59.814,44.983,45.044
-0.174,-0.672,1.372,38.940,73.486,46.082
-0.158,-0.657,1.398,20.386,100.342,47.119
-0.179,-0.611,1.437,-2.014,117.554,46.204
-0.193,-0.554,1.451,-25.513,128.662,41.748
-0.209,-0.533,1.481,-42.542,135.986,33.081
-0.167,-0.346,1.438,-56.335,140.198,22.339
-0.156,-0.266,1.442,-60.303,135.986,-0.183
-0.207,-0.281,1.467,-43.945,127.136,-25.696
-0.221,-0.268,1.539,-25.879,122.620,-43.518
-0.142,-0.238,1.506,-13.916,128.784,-54.626
-0.018,-0.189,1.331,3.967,135.193,-64.148
0.033,-0.125,1.148,16.968,127.136,-76.843
0.066,-0.058,1.090,6.226,100.647,-94.299
0.016,0.051,1.236,-20.508,64.575,-114.075
0.021,0.076,1.263,-49.866,45.471,-136.841
0.094,0.058,1.157,-74.951,32.349,-154.602
0.202,0.046,1.087,-103.821,13.123,-159.241
0.300,0.148,1.121,-137.268,-7.751,-148.193
0.326,0.428,1.661,-140.625,-17.212,-131.531
0.445,0.375,1.364,-100.281,10.742,-119.324
0.531,0.544,1.331,-109.558,23.193,-103.088
0.577,0.576,1.315,-102.173,25.696,-92.651
0.634,0.661,1.255,-99.304,26.978,-80.566
0.669,0.782,1.165,-91.980,24.902,-65.796
0.668,0.879,1.070,-74.707,18.860,-57.312
0.635,0.890,1.000,-54.626,8.850,-57.678
0.606,0.860,0.970,-40.710,-2.563,-59.143
0.589,0.833,0.961,-29.785,-12.085,-56.824
0.568,0.799,0.951,-17.944,-16.785,-51.208
0.553,0.761,0.929,-9.949,-17.700,-44.556
0.513,0.719,0.903,-6.592,-16.541,-36.560
0.486,0.684,0.864,-6.226,-12.756,-26.855
0.449,0.643,0.831,-4.395,-8.240,-16.968
0.408,0.604,0.794,-1.160,-4.639,-7.812
0.375,0.546,0.771,1.221,-3.357,1.038
0.344,0.550,0.795,1.770,-3.174,9.399
0.325,0.527,0.753,3.601,-1.526,14.465
0.295,0.497,0.751,3.906,-1.831,16.663
0.277,0.468,0.781,3.601,-2.991,16.602
0.261,0.418,0.797,4.639,-3.296,16.052
0.264,0.388,0.811,5.737,-4.028,15.808
0.275,0.379,0.829,4.822,-5.981,16.235
0.282,0.375,0.864,2.502,-7.996,16.357
0.292,0.364,0.903,0.549,-9.460,15.686
0.291,0.321,0.921,0.000,-9.644,14.954
0.293,0.314,0.936,-2.441,-9.705,16.235
0.294,0.318,0.929,-4.517,-9.094,17.822
0.292,0.308,0.904,-5.188,-7.019,17.944
0.279,0.301,0.877,-5.249,-4.761,18.127
0.275,0.314,0.842,-4.211,-3.357,19.104
0.252,0.298,0.833,-1.953,-3.296,18.677
0.238,0.297,0.859,-1.587,-3.784,18.616
0.228,0.286,0.888,-0.671,-4.089,18.005
0.208,0.269,0.906,1.953,-4.456,17.578
0.192,0.274,0.940,3.601,-4.700,17.761
0.198,0.265,0.958,3.601,-3.845,16.785
0.205,0.249,0.969,3.662,-2.869,15.564
0.209,0.237,0.974,1.953,-2.014,15.198
0.212,0.241,0.974,-0.488,-1.892,16.479
0.207,0.247,0.974,-2.686,-2.075,18.127
0.199,0.261,0.947,-2.686,-1.587,19.226
0.191,0.263,0.923,-1.831,-2.319,19.409

-0.316,-0.880,1.745,27.710,29.419,-23.499
-0.364,-0.983,1.870,11.230,29.236,-42.542
-0.342,-1.007,1.981,-13.184,29.541,-62.866
-0.279,-0.968,2.020,-38.147,33.203,-82.886
-0.167,-0.850,2.011,-61.584,37.598,-99.243
-0.104,-0.674,2.013,-78.247,39.246,-111.450
-0.069,-0.436,2.075,-84.045,39.063,-119.507
-0.002,-0.176,2.157,-93.079,38.391,-126.831
0.108,0.105,2.245,-107.849,37.842,-135.193
0.266,0.397,2.221,-124.512,37.659,-145.020
0.466,0.808,2.140,-144.958,38.940,-154.785
0.722,1.078,2.002,-161.865,39.429,-162.048
0.979,1.463,1.764,-173.279,30.579,-162.842
1.214,1.694,1.527,-173.523,5.432,-178.101
1.353,1.853,1.335,-173.950,-26.367,-179.871
1.575,1.926,1.186,-174.561,-60.791,-170.593
1.765,1.848,0.996,-158.264,-90.149,-156.616
1.806,1.790,0.829,-135.010,-117.188,-133.789
1.747,1.717,0.711,-121.338,-136.719,-106.628
1.700,1.598,0.579,-123.230,-143.250,-83.862
1.579,1.437,0.416,-127.014,-143.005,-63.049
1.439,1.221,0.298,-128.296,-137.390,-41.931
1.277,1.068,0.056,-127.502,-126.770,-16.296
1.097,0.962,-0.135,-126.282,-114.258,7.263
0.984,0.775,-0.274,-118.408,-98.633,27.832
0.894,0.666,-0.405,-114.380,-86.853,53.589
0.747,0.627,-0.500,-104.004,-74.951,85.144
0.603,0.648,-0.520,-87.097,-63.354,112.244
0.538,0.591,-0.502,-72.021,-54.077,127.930
0.469,0.482,-0.483,-58.044,-43.457,137.451
0.425,0.401,-0.462,-43.640,-29.541,148.682
0.379,0.336,-0.431,-26.184,-16.174,160.583
0.327,0.255,-0.390,-9.216,-5.920,169.189
0.285,0.182,-0.360,6.531,2.136,174.377
0.273,0.107,-0.350,22.034,9.277,176.514
0.266,0.026,-0.363,36.499,13.245,175.781
0.271,-0.044,-0.341,48.828,14.099,174.011
0.307,-0.113,-0.278,58.228,11.719,172.913
0.329,-0.164,-0.151,65.918,7.141,172.424
0.336,-0.265,-0.088,69.153,3.357,170.959
0.313,-0.394,-0.003,67.871,0.122,170.105
0.258,-0.511,0.020,74.768,2.930,171.509
0.136,-0.666,0.067,86.121,9.827,175.415
0.063,-0.724,0.099,91.003,21.057,183.777
-0.009,-0.708,0.162,93.323,28.992,190.186
-0.078,-0.760,0.325,94.177,30.701,187.195
-0.147,-0.860,0.529,94.116,35.339,179.321
-0.226,-0.938,0.693,95.764,45.349,174.683
-0.298,-0.972,0.805,98.267,55.847,173.340
-0.361,-0.949,0.909,100.403,64.697,173.035
-0.387,-0.914,0.929,102.051,74.646,171.082
-0.439,-0.851,0.929,105.896,85.266,166.321
-0.508,-0.782,0.824,111.267,98.022,155.945
-0.511,-0.692,0.681,105.103,105.530,140.747
-0.432,-0.617,0.519,99.792,101.624,121.399
-0.387,-0.598,0.463,100.159,86.243,98.877
-0.393,-0.630,0.613,93.079,62.561,76.050
-0.413,-0.698,0.877,75.012,39.978,54.199
-0.405,-0.734,1.133,47.485,32.166,36.621
-0.342,-0.709,1.319,15.747,42.480,25.696
-0.278,-0.681,1.427,-9.094,65.125,22.156
-0.213,-0.492,1.688,-28.564,92.896,23.254
-0.231,-0.444,1.539,-26.978,125.793,14.893
-0.189,-0.403,1.416,-32.959,148.682,0.244
-0.146,-0.269,1.385,-43.518,151.550,-11.658
-0.125,-0.185,1.392,-47.546,143.677,-28.687
-0.079,-0.119,1.430,-45.471,131.531,-48.584
0.104,0.104,1.410,-36.011,118.469,-69.092
0.115,0.065,1.457,-19.165,94.543,-102.966
0.141,-0.219,1.785,-9.277,67.322,-132.019
0.214,-0.086,2.004,-2.991,83.923,-122.681
0.233,0.243,1.771,5.737,132.874,-111.145
0.356,0.153,1.010,0.793,146.179,-126.465
0.354,0.252,1.562,-34.302,61.279,-131.592
0.294,0.536,2.073,-78.491,28.015,-131.470
0.315,0.465,1.646,-87.708,79.468,-151.978
0.370,0.442,1.102,-94.177,98.633,-164.917
0.414,0.536,0.877,-110.352,63.599,-160.156
0.434,0.623,0.910,-116.882,10.010,-147.400
0.460,0.753,1.029,-112.244,-27.710,-130.737
0.496,0.876,1.312,-88.562,-38.757,-115.051
0.540,0.849,1.076,-56.152,-24.841,-100.830
0.587,0.925,1.034,-47.241,-23.804,-84.229
0.566,0.922,1.041,-33.142,-28.931,-70.190
0.541,0.892,1.032,-27.100,-29.846,-57.983
0.513,0.848,1.023,-21.729,-27.344,-45.166
0.478,0.787,0.988,-17.822,-23.132,-33.752
0.446,0.749,0.920,-16.052,-18.250,-22.766
0.405,0.708,0.852,-12.024,-13.611,-13.916
0.370,0.657,0.789,-4.517,-10.559,-7.324
0.328,0.612,0.770,1.648,-11.230,-2.930
0.284,0.547,0.798,6.348,-13.000,-0.305
0.250,0.514,0.807,13.245,-11.230,2.258
0.228,0.513,0.834,16.663,-8.850,3.784
0.209,0.443,0.818,18.311,-4.272,0.122
0.209,0.400,0.805,19.348,-1.099,-1.587
0.224,0.371,0.849,15.076,-0.977,-1.587
0.232,0.333,0.867,11.475,1.282,-0.671
0.230,0.308,0.814,9.644,7.202,1.953
0.230,0.301,0.784,5.615,9.583,5.310
0.237,0.288,0.813,0.305,7.202,7.690
0.239,0.288,0.848,-4.456,4.333,9.155
0.234,0.234,0.829,-8.362,3.052,9.766
0.250,0.258,0.813,-13.611,1.770,13.794
0.252,0.294,0.836,-17.761,-0.854,17.822
0.246,0.290,0.842,-18.311,-1.465,17.883
0.229,0.270,0.819,-16.724,-0.549,17.517
0.210,0.290,0.824,-16.296,-0.671,18.372
0.206,0.286,0.866,-18.738,-2.502,16.846
0.209,0.287,0.916,-19.531,-4.211,14.771
0.212,0.294,0.934,-19.043,-4.517,12.939
0.210,0.290,0.921,-18.188,-3.174,11.047
0.211,0.291,0.913,-19.653,-2.014,9.338
0.212,0.296,0.926,-20.569,-2.075,8.423
0.211,0.300,0.938,-20.325,-1.404,7.507
0.207,0.296,0.918,-17.029,1.221,6.592
0.200,0.289,0.897,-13.062,3.418,5.981
0.198,0.287,0.896,-11.047,3.845,5.615
0.199,0.293,0.917,-10.376,2.991,5.615

-0.428,-0.885,1.686,-20.813,21.301,-29.358
-0.426,-0.965,1.843,-41.260,39.307,-47.791
-0.434,-1.027,1.996,-61.096,47.607,-66.162
-0.327,-1.007,1.995,-103.760,52.979,-85.510
-0.203,-0.864,1.904,-146.118,56.396,-101.318
-0.149,-0.591,1.812,-170.044,55.359,-114.990
-0.036,-0.365,1.774,-174.622,48.157,-129.333
0.107,-0.043,1.722,-174.011,34.851,-140.259
0.265,0.251,1.762,-173.340,13.306,-150.879
0.404,0.629,1.845,-171.753,-8.789,-159.851
0.528,1.021,1.841,-174.438,-25.818,-169.006
0.737,1.406,1.851,-182.678,-41.016,-178.650
1.025,1.735,1.746,-194.824,-49.072,-190.063
1.348,1.905,1.447,-201.538,-52.429,-194.336
1.672,1.939,1.159,-197.815,-58.899,-181.335
1.896,1.976,0.891,-174.805,-62.134,-149.414
2.005,1.985,0.538,-132.874,-59.631,-105.347
1.965,1.896,0.194,-86.853,-66.650,-59.082
1.886,1.887,0.077,-49.194,-85.815,-14.771
1.717,1.841,0.044,-35.950,-105.469,22.522
1.498,1.668,-0.036,-30.701,-114.685,45.349
1.313,1.443,-0.191,-27.283,-113.831,60.730
1.162,1.313,-0.360,-19.592,-106.018,79.590
1.057,1.205,-0.452,-11.963,-100.220,99.304
0.900,1.084,-0.515,-9.033,-93.567,114.807
0.786,0.979,-0.601,-4.883,-80.750,128.052
0.688,0.829,-0.619,3.723,-67.993,140.747
0.590,0.747,-0.613,17.090,-55.725,155.396
0.497,0.674,-0.600,35.278,-43.457,168.518
0.430,0.563,-0.581,54.138,-32.715,174.377
0.358,0.434,-0.599,69.519,-20.691,176.819
0.322,0.331,-0.605,80.505,-8.606,178.589
0.331,0.239,-0.581,89.905,0.183,180.420
0.358,0.147,-0.529,98.633,6.470,182.007
0.394,0.036,-0.519,108.521,9.033,183.167
0.404,-0.079,-0.473,117.920,8.179,184.265
0.407,-0.187,-0.341,125.854,3.235,185.425
0.437,-0.292,-0.206,133.118,-1.831,184.509
0.428,-0.395,-0.078,141.663,-4.150,181.641
0.391,-0.539,-0.017,149.719,-3.479,176.880
0.348,-0.649,0.085,148.560,-2.441,172.424
0.276,-0.764,0.265,142.517,-2.563,168.701
0.158,-0.864,0.357,138.733,3.357,166.382
0.007,-0.919,0.423,137.329,12.512,163.818
-0.100,-0.956,0.460,131.958,19.287,157.166
-0.141,-0.978,0.446,123.596,27.100,146.912
-0.152,-1.015,0.438,115.356,34.790,136.047
-0.174,-1.035,0.531,102.722,35.400,126.160
-0.195,-1.061,0.665,88.501,30.884,117.981
-0.226,-1.071,0.752,76.721,29.175,111.206
-0.292,-1.035,0.760,70.068,32.898,105.713
-0.357,-0.979,0.793,65.979,33.630,97.839
-0.414,-0.911,0.827,66.162,30.334,83.801
-0.434,-0.843,0.821,66.650,25.818,63.660
-0.404,-0.803,0.816,63.171,21.240,38.330
-0.342,-0.768,0.866,50.964,19.165,13.062
-0.256,-0.728,0.973,35.400,21.545,-7.202
-0.194,-0.663,1.136,20.386,28.748,-20.325
-0.153,-0.584,1.258,7.996,41.077,-26.917
-0.125,-0.521,1.304,-3.845,59.143,-30.334
-0.114,-0.446,1.314,-17.456,79.895,-32.532
-0.102,-0.349,1.320,-30.334,96.497,-34.424
-0.073,-0.219,1.337,-35.522,106.140,-37.048
-0.100,-0.177,1.342,-31.860,109.253,-43.091
-0.126,-0.044,1.341,-21.118,102.661,-54.321
-0.200,-0.319,1.585,-10.498,83.191,-78.918
-0.186,-0.216,1.734,-5.249,83.862,-86.304
-0.137,-0.049,1.598,4.822,105.469,-93.201
-0.070,0.027,1.216,14.038,112.671,-113.586
-0.028,-0.037,1.326,8.301,70.313,-135.437
-0.036,0.033,1.720,-2.502,34.119,-146.057
0.010,0.146,1.789,-7.935,51.025,-153.381
0.119,0.132,1.488,-9.827,84.595,-164.368
0.256,0.174,1.263,-28.564,81.299,-168.701
0.384,0.271,1.225,-61.401,46.631,-164.795
0.464,0.382,1.300,-88.257,6.958,-153.809
0.531,0.504,1.352,-97.900,-14.771,-137.329
0.559,0.603,1.329,-92.712,-17.273,-119.568
0.566,0.659,1.266,-81.055,-15.991,-101.929
0.564,0.694,1.214,-72.998,-17.578,-84.656
0.574,0.735,1.175,-69.397,-19.226,-67.444
0.564,0.774,1.147,-65.308,-20.081,-51.392
0.523,0.785,1.205,-57.556,-18.921,-37.048
0.452,0.723,1.114,-42.908,-12.329,-23.743
0.413,0.689,1.039,-35.645,-5.859,-11.230
0.353,0.636,1.008,-29.480,-5.737,-1.343
0.316,0.598,0.931,-23.865,-5.554,7.690
0.258,0.547,0.895,-15.747,-6.470,15.564
0.217,0.517,0.886,-3.723,-3.662,21.057
0.192,0.472,0.870,9.277,3.540,23.743
0.167,0.422,0.895,19.897,10.315,24.658
0.143,0.375,0.927,27.527,15.137,24.902
0.134,0.322,0.953,32.898,16.663,24.536
0.125,0.268,0.961,37.292,18.860,23.865
0.115,0.209,0.945,42.175,24.109,23.499
0.100,0.155,0.926,45.288,28.748,24.048
0.106,0.119,0.907,45.166,31.799,26.917
0.118,0.136,0.894,41.199,32.043,31.738
0.136,0.170,0.877,35.767,27.710,34.546
0.154,0.158,0.839,30.457,20.325,33.447
0.162,0.151,0.822,22.095,9.888,31.982
0.160,0.151,0.848,10.132,-2.014,30.518
0.158,0.141,0.905,-2.625,-11.719,28.076
0.156,0.141,0.954,-11.658,-18.188,24.902
0.165,0.133,0.974,-15.137,-21.729,21.179
0.156,0.120,0.973,-15.625,-23.071,16.724
0.131,0.111,0.963,-13.855,-22.583,13.428
0.130,0.116,0.959,-14.404,-22.339,11.108
0.135,0.115,0.969,-15.503,-23.499,8.728
0.139,0.120,0.990,-15.076,-23.560,7.080
0.133,0.125,0.993,-11.719,-21.667,6.042
0.124,0.117,0.981,-7.324,-18.372,4.700
0.121,0.116,0.979,-4.761,-15.381,4.395
0.125,0.129,0.979,-4.517,-13.123,5.432
0.133,0.150,0.974,-4.028,-10.925,7.019
0.138,0.156,0.971,-4.456,-9.277,8.118
0.148,0.167,0.967,-5.127,-7.751,9.583
0.148,0.176,0.949,-5.371,-4.822,11.169
0.141,0.181,0.927,-4.639,-2.197,13.245

-0.167,-0.277,2.068,-85.266,35.034,-84.290
-0.085,-0.159,2.224,-100.464,38.391,-95.703
-0.023,-0.046,2.318,-108.032,41.321,-105.530
0.037,0.151,2.359,-116.150,44.006,-112.244
0.146,0.444,2.318,-131.531,43.640,-116.760
0.298,0.782,2.173,-143.921,37.903,-121.582
0.477,1.075,1.995,-148.987,24.597,-127.014
0.731,1.380,1.801,-148.987,5.371,-122.620
0.889,1.678,1.647,-148.010,-18.311,-119.629
1.070,1.784,1.688,-143.616,-44.861,-124.207
1.220,1.739,1.489,-124.695,-56.335,-114.807
1.342,1.661,1.181,-122.925,-64.148,-93.445
1.328,1.659,1.071,-136.292,-84.656,-61.279
1.276,1.653,0.946,-129.456,-100.891,-26.672
1.209,1.571,0.806,-113.831,-108.948,0.671
1.151,1.479,0.690,-105.225,-112.915,22.278
1.078,1.391,0.576,-102.051,-109.680,42.603
0.974,1.247,0.368,-101.135,-98.145,61.401
0.879,1.114,0.044,-101.990,-80.200,79.163
0.825,0.997,-0.166,-109.009,-66.895,96.069
0.734,0.907,-0.281,-106.934,-57.556,115.234
0.643,0.836,-0.431,-89.050,-45.654,132.202
0.558,0.726,-0.587,-67.688,-34.851,143.433
0.536,0.640,-0.707,-42.542,-29.907,152.222
0.501,0.491,-0.723,-16.052,-30.396,160.278
0.457,0.357,-0.656,3.662,-30.334,168.274
0.442,0.196,-0.612,16.541,-22.949,176.514
0.424,0.053,-0.594,26.306,-9.766,185.852
0.411,-0.053,-0.667,36.926,5.432,194.275
0.431,-0.152,-0.785,49.805,18.738,197.937
0.464,-0.276,-0.846,65.002,23.682,196.228
0.487,-0.444,-0.784,83.618,21.301,190.857
0.449,-0.647,-0.642,103.271,17.883,184.753
0.335,-0.804,-0.442,120.300,16.602,179.749
0.258,-0.864,-0.302,129.456,20.142,174.255
0.215,-0.891,-0.244,135.132,27.100,165.100
0.168,-0.952,-0.177,143.127,31.433,154.053
0.082,-1.026,-0.016,148.071,30.151,145.081
-0.012,-1.131,0.176,145.081,26.672,139.099
-0.134,-1.230,0.415,135.986,26.550,134.888
-0.283,-1.332,0.692,125.916,32.043,132.629
-0.447,-1.363,0.920,114.258,46.387,130.310
-0.554,-1.332,1.010,101.990,67.993,124.817
-0.616,-1.246,0.967,88.013,87.524,112.244
-0.593,-1.092,0.840,75.928,99.426,93.384
-0.530,-0.988,0.705,72.327,98.083,68.298
-0.448,-0.891,0.639,77.942,87.036,41.870
-0.336,-0.784,0.719,87.158,70.496,19.287
-0.249,-0.727,0.956,93.933,52.002,-1.587
-0.175,-0.720,1.219,89.233,39.307,-19.958
-0.095,-0.702,1.398,71.167,41.199,-30.579
-0.033,-0.620,1.546,44.678,57.983,-30.579
-0.036,-0.520,1.620,18.738,82.397,-24.841
-0.091,-0.440,1.582,-0.977,109.131,-20.264
-0.154,-0.374,1.464,-15.991,130.493,-20.813
-0.156,-0.296,1.307,-28.137,140.991,-27.527
-0.074,-0.190,1.259,-36.316,135.315,-41.809
-0.011,-0.097,1.365,-40.405,118.591,-65.735
0.070,-0.048,1.411,-39.185,103.821,-91.919
0.158,-0.019,1.445,-33.630,93.323,-109.314
0.244,0.157,1.355,-25.330,79.712,-119.507
0.195,-0.080,1.730,-19.043,48.523,-138.733
0.204,-0.041,1.955,-18.494,56.152,-134.216
0.320,0.144,1.643,-20.264,96.008,-118.286
0.297,0.189,1.390,-25.513,103.394,-114.929
0.344,0.161,1.357,-37.354,75.500,-114.685
0.290,0.473,1.603,-45.471,50.842,-106.750
0.274,0.318,1.383,-44.983,63.232,-123.901
0.363,0.216,1.144,-48.401,63.049,-133.667
0.423,0.436,1.084,-55.664,34.607,-122.253
0.431,0.471,1.051,-54.382,2.380,-121.460
0.465,0.361,1.123,-52.856,-28.564,-123.901
0.502,0.372,1.288,-53.711,-49.072,-110.779
0.518,0.430,1.341,-49.927,-48.889,-89.600
0.509,0.468,1.242,-45.837,-38.086,-71.472
0.489,0.492,1.138,-43.518,-29.907,-57.861
0.437,0.509,1.128,-41.321,-27.283,-48.096
0.391,0.483,1.125,-38.269,-23.865,-42.175
0.358,0.451,1.085,-33.813,-16.785,-37.354
0.323,0.450,1.038,-28.076,-9.705,-31.433
0.300,0.453,0.982,-23.132,-5.493,-26.184
0.298,0.438,0.920,-16.235,-4.150,-22.156
0.258,0.436,1.053,-12.268,-5.066,-18.677
0.272,0.414,0.962,-7.080,7.935,-17.029
0.284,0.468,0.760,0.610,15.808,-15.808
0.305,0.396,0.569,4.639,-3.357,-19.897
0.215,0.331,0.921,-0.549,-46.631,-22.217
0.167,0.325,1.249,1.160,-48.279,-19.165
0.148,0.334,1.099,18.372,-1.770,-15.930
0.110,0.193,0.888,31.494,28.931,-18.555
0.136,0.182,0.859,24.902,28.076,-14.099
0.173,0.247,0.893,14.526,18.860,-6.531
0.180,0.258,0.931,9.827,11.475,-5.249
0.179,0.214,0.957,6.287,7.202,-6.897
0.186,0.174,0.916,3.601,5.859,-5.920
0.201,0.170,0.848,1.160,0.732,-2.258
0.184,0.155,0.820,-2.014,-10.254,1.648
0.175,0.160,0.851,-8.362,-20.203,6.348
0.178,0.171,0.908,-14.038,-24.658,10.498
0.176,0.169,0.965,-14.771,-24.719,12.573
0.170,0.165,0.988,-14.526,-22.217,14.404
0.169,0.169,0.995,-14.832,-19.836,16.235
0.171,0.179,1.015,-16.663,-18.860,16.846
0.168,0.178,1.007,-18.127,-16.907,16.418
0.167,0.174,0.961,-17.700,-12.573,15.991
0.161,0.175,0.922,-16.785,-8.545,16.235
0.155,0.180,0.913,-16.418,-6.287,16.846
0.152,0.182,0.912,-15.564,-4.822,16.846
0.137,0.170,0.917,-12.024,-3.479,16.113
0.129,0.152,0.926,-9.094,-2.991,15.381
0.123,0.142,0.936,-6.958,-2.747,14.771
0.108,0.138,0.947,-4.333,-2.136,14.587
0.096,0.137,0.946,-2.625,-1.099,14.038
0.101,0.137,0.938,-1.953,-0.854,13.123
0.092,0.133,0.953,-1.953,-2.258,12.024
0.083,0.129,0.969,-2.563,-2.930,11.047
0.083,0.143,0.951,-3.479,-0.977,10.742
0.089,0.153,0.923,-3.418,0.183,9.888
0.093,0.153,0.917,-3.662,-2.075,8.301

-0.424,-0.919,1.755,-62.439,25.085,-48.035
-0.559,-0.978,2.063,-73.608,30.884,-59.265
-0.635,-0.991,2.248,-93.079,47.058,-75.500
-0.554,-0.844,2.223,-126.831,71.533,-93.994
-0.401,-0.680,2.142,-167.297,91.492,-114.563
-0.210,-0.333,2.055,-192.749,98.511,-126.770
0.026,0.224,1.966,-212.708,96.313,-129.333
0.303,0.772,1.783,-227.051,87.219,-138.123
0.618,1.247,1.640,-229.065,65.979,-151.489
0.929,1.578,1.655,-222.656,32.898,-165.894
1.185,1.780,1.703,-208.801,0.671,-174.072
1.407,1.885,1.646,-184.265,-18.555,-169.434
1.578,1.977,1.432,-172.791,-26.306,-152.466
1.681,1.988,1.117,-165.222,-33.325,-131.470
1.697,1.900,0.779,-151.794,-40.161,-109.802
1.658,1.823,0.513,-131.958,-48.523,-85.022
1.629,1.701,0.322,-111.511,-59.326,-60.852
1.539,1.519,0.208,-91.675,-74.707,-40.527
1.387,1.343,0.156,-77.393,-91.675,-20.752
1.267,1.174,0.176,-63.904,-101.013,-0.305
1.125,0.985,0.137,-45.288,-97.046,20.691
0.976,0.833,0.012,-27.405,-80.872,43.579
0.861,0.720,-0.151,-15.747,-61.035,66.833
0.784,0.658,-0.246,-14.160,-47.241,87.891
0.717,0.578,-0.217,-12.939,-41.809,103.577
0.618,0.454,-0.183,-4.700,-35.217,114.441
0.521,0.319,-0.231,11.475,-25.085,125.122
0.427,0.216,-0.301,25.146,-15.991,137.573
0.352,0.170,-0.363,33.081,-11.047,150.696
0.285,0.155,-0.385,40.955,-8.606,161.011
0.215,0.101,-0.379,52.124,-8.728,164.124
0.187,0.022,-0.404,66.162,-8.240,162.170
0.200,-0.053,-0.459,83.923,-7.751,158.813
0.202,-0.176,-0.521,102.722,-7.690,154.541
0.180,-0.263,-0.542,119.263,-7.568,152.100
0.163,-0.354,-0.580,135.254,-7.202,150.818
0.106,-0.442,-0.520,148.926,-9.155,145.752
0.027,-0.512,-0.346,157.898,-14.709,138.245
-0.022,-0.619,-0.176,164.124,-16.235,129.089
-0.069,-0.746,-0.015,168.640,-14.587,121.216
-0.154,-0.845,0.136,171.997,-11.169,117.004
-0.253,-0.927,0.271,169.312,-4.944,116.150
-0.318,-0.969,0.340,162.781,4.211,118.347
-0.401,-0.980,0.399,154.419,14.648,120.667
-0.486,-0.982,0.453,142.517,21.790,118.652
-0.524,-0.945,0.534,123.718,27.100,111.694
-0.545,-0.911,0.668,103.760,29.663,99.915
-0.561,-0.904,0.761,90.698,33.447,83.679
-0.563,-0.891,0.810,80.750,40.161,66.772
-0.549,-0.873,0.862,70.496,45.166,49.622
-0.515,-0.830,0.940,60.791,45.410,31.433
-0.440,-0.769,1.019,53.345,40.955,12.451
-0.365,-0.742,1.086,47.424,34.058,-6.653
-0.307,-0.703,1.190,39.063,27.161,-24.048
-0.246,-0.660,1.280,29.663,26.184,-38.879
-0.148,-0.612,1.313,22.217,33.813,-51.208
-0.073,-0.554,1.411,14.893,43.457,-59.021
-0.070,-0.515,1.534,8.667,54.138,-63.660
0.000,-0.392,1.491,4.883,67.627,-65.125
-0.035,-0.344,1.621,2.014,71.350,-70.313
-0.077,-0.445,1.771,-1.160,81.543,-82.642
-0.008,-0.433,1.606,-5.249,110.229,-85.449
0.052,-0.335,1.447,-13.000,123.596,-82.886
0.144,-0.237,1.484,-26.367,114.563,-84.839
0.099,-0.201,1.510,-32.898,106.506,-91.553
0.208,-0.058,1.349,-42.542,104.553,-94.666
0.214,0.177,1.274,-46.997,93.079,-98.511
0.303,0.114,1.029,-48.584,82.764,-116.333
0.421,0.092,0.943,-55.542,57.556,-120.300
0.507,0.260,1.034,-61.829,24.963,-106.628
0.563,0.334,1.107,-57.373,2.991,-96.191
0.566,0.306,1.219,-53.345,-10.620,-89.844
0.566,0.300,1.338,-51.453,-18.005,-77.820
0.539,0.340,1.450,-53.955,-15.503,-64.270
0.505,0.399,1.478,-60.242,-1.282,-54.199
0.490,0.434,1.373,-64.026,17.456,-48.889
0.479,0.435,1.227,-64.941,32.043,-46.936
0.494,0.462,1.135,-62.683,37.842,-43.884
0.508,0.487,1.076,-54.382,37.231,-40.039
0.529,0.505,1.047,-41.748,34.668,-36.865
0.531,0.523,1.049,-33.203,29.541,-33.508
0.524,0.511,1.004,-26.062,26.001,-32.166
0.506,0.468,0.960,-21.057,19.958,-30.212
0.485,0.443,0.974,-18.982,10.559,-25.940
0.424,0.400,0.968,-16.357,3.235,-21.973
0.368,0.351,0.975,-16.663,-2.075,-17.883
0.290,0.352,1.030,-20.813,-1.160,-13.977
0.355,0.321,0.794,-16.846,12.268,-13.733
0.351,0.260,0.583,-8.179,5.981,-11.169
0.375,0.357,0.624,-7.446,-23.926,-4.822
0.286,0.451,1.094,-8.484,-52.917,-3.479
0.249,0.285,1.201,3.845,-24.841,-14.343
0.289,0.199,0.923,19.958,18.555,-15.808
0.315,0.169,0.795,21.851,26.123,-6.958
0.344,0.227,0.850,13.245,12.512,4.761
0.355,0.228,0.903,9.338,3.845,13.794
0.331,0.208,0.915,10.498,2.380,19.592
0.286,0.181,0.893,10.437,0.305,23.560
0.238,0.158,0.879,7.385,-6.653,24.658
0.199,0.138,0.887,5.066,-14.404,22.766
0.161,0.116,0.922,4.883,-18.127,19.287
0.137,0.099,0.949,5.310,-17.761,15.747
0.135,0.101,0.956,4.639,-15.686,12.695
0.137,0.118,0.961,2.563,-14.648,9.033
0.144,0.119,0.961,0.793,-15.442,4.944
0.166,0.118,0.958,-1.465,-16.113,1.587
0.177,0.127,0.969,-4.333,-16.785,-0.305
0.183,0.121,0.971,-6.592,-15.869,-1.343
0.196,0.121,0.959,-9.766,-13.489,-1.404
0.201,0.123,0.953,-11.963,-10.925,-0.183
0.188,0.121,0.954,-12.695,-8.972,1.648
0.188,0.122,0.945,-13.428,-6.897,3.296
0.185,0.118,0.928,-12.817,-5.249,4.578
0.168,0.110,0.923,-10.681,-4.150,5.310
0.151,0.106,0.907,-8.118,-3.235,5.737
0.146,0.109,0.886,-5.554,-3.296,5.920
0.133,0.104,0.906,-3.662,-4.883,5.493
0.111,0.105,0.936,-3.052,-6.409,4.150
0.105,0.109,0.965,-4.456,-7.324,2.441

-0.304,-1.034,1.704,-57.800,59.448,-40.588
-0.407,-1.116,1.900,-66.711,70.801,-45.959
-0.400,-1.124,2.029,-87.524,77.759,-56.458
-0.244,-1.082,2.070,-120.300,81.177,-73.669
0.015,-0.969,1.968,-149.048,83.191,-90.393
0.320,-0.550,1.712,-174.255,80.566,-97.534
0.539,0.307,1.687,-201.050,62.744,-109.863
0.812,0.414,1.604,-204.407,34.729,-151.978
0.916,0.569,1.620,-201.233,5.554,-180.237
1.009,0.814,1.701,-197.998,-14.526,-179.626
1.117,1.161,1.776,-201.294,-31.799,-162.354
1.212,1.404,1.638,-204.163,-35.645,-145.142
1.322,1.646,1.416,-211.426,-36.438,-130.676
1.444,1.924,1.153,-215.393,-39.673,-118.103
1.587,2.275,0.810,-216.919,-49.438,-105.835
1.755,2.501,0.427,-200.745,-65.918,-100.769
1.899,2.462,0.164,-181.458,-94.849,-101.013
2.005,2.259,0.022,-154.968,-124.390,-93.018
2.043,2.052,-0.071,-123.230,-142.761,-70.801
1.949,1.844,-0.199,-88.379,-144.836,-40.222
1.800,1.620,-0.338,-59.326,-132.629,-8.911
1.576,1.279,-0.512,-35.889,-115.479,18.066
1.322,0.965,-0.598,-21.973,-97.473,48.157
1.059,0.799,-0.650,-10.010,-79.895,82.703
0.861,0.649,-0.707,0.793,-63.904,112.549
0.667,0.508,-0.738,13.245,-53.650,134.460
0.544,0.381,-0.781,27.771,-43.091,153.198
0.423,0.264,-0.821,41.077,-29.602,168.457
0.321,0.109,-0.823,53.711,-15.442,182.434
0.205,-0.061,-0.793,71.838,0.244,196.960
0.069,-0.221,-0.762,92.529,16.785,210.937
-0.064,-0.358,-0.774,115.112,32.959,220.215
-0.147,-0.433,-0.713,134.338,45.593,223.328
-0.188,-0.505,-0.597,148.193,51.270,217.590
-0.166,-0.589,-0.467,155.640,50.964,205.261
-0.140,-0.677,-0.375,163.513,48.218,191.345
-0.131,-0.757,-0.259,169.739,43.579,178.101
-0.117,-0.812,-0.208,172.302,38.818,166.809
-0.097,-0.798,-0.093,169.067,32.593,156.006
-0.098,-0.832,0.063,166.077,21.851,142.639
-0.156,-0.888,0.215,161.438,13.245,128.906
-0.222,-0.904,0.372,150.818,8.240,116.455
-0.257,-0.854,0.465,138.855,9.155,102.417
-0.263,-0.842,0.632,128.113,10.010,83.740
-0.290,-0.941,0.852,120.483,9.094,62.500
-0.326,-0.994,1.041,107.849,12.207,45.776
-0.315,-0.972,1.130,93.079,22.461,35.461
-0.271,-0.939,1.139,80.505,33.875,26.489
-0.266,-0.840,1.143,69.458,39.795,16.541
-0.238,-0.753,1.103,61.096,39.246,5.615
-0.183,-0.702,1.094,56.213,32.654,-6.958
-0.151,-0.634,1.166,51.575,21.545,-19.653
-0.082,-0.556,1.246,47.791,12.634,-29.236
0.015,-0.462,1.431,40.466,8.240,-34.973
0.062,-0.430,1.575,27.466,15.564,-39.246
0.077,-0.407,1.636,13.672,41.382,-40.466
0.047,-0.344,1.645,0.427,74.890,-38.879
0.002,-0.307,1.573,-10.376,105.469,-39.612
0.019,-0.126,1.420,-14.282,125.916,-42.603
0.039,0.027,1.146,-6.287,124.939,-58.533
0.037,-0.146,1.293,2.380,89.966,-88.623
0.079,-0.148,1.557,9.338,66.956,-99.976
0.147,-0.072,1.568,27.344,74.707,-99.304
0.214,0.011,1.460,39.063,82.214,-101.929
0.357,0.052,1.300,29.236,71.716,-111.572
0.418,0.183,1.340,7.324,43.640,-120.911
0.443,0.172,1.346,-14.954,25.513,-133.179
0.464,0.138,1.267,-37.354,13.733,-137.695
0.467,0.207,1.178,-58.472,-2.075,-129.211
0.490,0.302,1.125,-73.975,-19.775,-116.943
0.496,0.365,1.112,-77.820,-35.034,-106.323
0.465,0.448,1.128,-72.937,-45.471,-95.764
0.454,0.511,1.111,-64.087,-51.147,-86.487
0.455,0.552,1.095,-56.824,-53.650,-79.895
0.474,0.577,1.093,-49.683,-53.772,-73.669
0.503,0.597,1.129,-44.434,-50.232,-66.895
0.521,0.607,1.153,-41.748,-43.884,-58.411
0.521,0.592,1.130,-39.673,-34.607,-49.377
0.503,0.551,1.098,-36.072,-24.353,-40.405
0.476,0.514,1.068,-32.532,-15.686,-30.579
0.423,0.475,1.036,-27.710,-8.972,-20.630
0.369,0.431,1.001,-22.522,-4.211,-12.085
0.331,0.397,1.057,-19.470,-2.197,-4.883
0.299,0.370,1.114,-16.724,2.930,1.221
0.272,0.349,1.147,-14.343,13.672,7.263
0.288,0.339,1.068,-10.986,30.945,12.756
0.281,0.329,1.005,-7.141,43.518,17.578
0.267,0.317,0.929,-4.517,49.072,20.508
0.253,0.283,0.832,1.709,53.162,22.095
0.247,0.262,0.829,7.751,52.063,23.804
0.222,0.263,0.908,10.071,44.983,24.597
0.207,0.219,0.939,11.963,39.429,21.973
0.200,0.177,0.911,14.832,35.217,19.714
0.194,0.176,0.884,16.296,28.198,19.226
0.197,0.198,0.874,13.000,18.250,16.846
0.225,0.206,0.884,4.944,6.714,12.634
0.255,0.189,0.900,-3.479,-3.967,7.690
0.267,0.179,0.918,-9.399,-12.512,6.104
0.266,0.175,0.929,-12.146,-17.822,7.446
0.263,0.172,0.944,-14.526,-20.630,9.644
0.249,0.169,0.927,-15.991,-20.142,12.024
0.234,0.167,0.880,-14.893,-16.418,14.282
0.220,0.169,0.847,-12.207,-12.329,15.320
0.198,0.165,0.862,-11.108,-11.719,15.686
0.188,0.166,0.894,-10.742,-14.221,15.259
0.184,0.157,0.927,-10.254,-16.663,14.221
0.169,0.145,0.943,-9.033,-17.334,12.939
0.161,0.141,0.950,-9.155,-17.090,11.841
0.167,0.134,0.983,-10.925,-17.090,11.230
0.173,0.133,1.018,-13.550,-16.235,11.597
0.186,0.145,1.037,-16.357,-13.550,13.611
0.192,0.165,1.027,-18.250,-8.850,16.113
0.187,0.168,0.989,-18.372,-2.686,17.639
0.156,0.149,0.914,-15.991,4.028,18.433
0.124,0.152,0.831,-11.658,9.888,19.287
0.110,0.174,0.802,-8.057,12.329,19.653
0.099,0.194,0.845,-3.662,11.108,17.273
0.113,0.197,0.919,-0.427,7.446,12.817
0.129,0.194,0.953,2.380,3.235,8.301

-0.459,-0.895,1.755,-120.178,97.900,-29.541
-0.418,-0.912,1.903,-128.906,103.760,-49.194
-0.291,-0.838,1.937,-146.179,110.107,-69.763
-0.138,-0.751,1.908,-160.583,114.075,-90.149
0.022,-0.535,1.857,-168.762,113.464,-103.882
0.199,-0.152,1.788,-178.711,106.873,-111.694
0.375,0.306,1.722,-186.890,94.666,-122.986
0.637,0.801,1.688,-191.284,73.486,-139.465
0.945,1.312,1.668,-188.965,42.053,-159.180
1.312,1.772,1.495,-182.129,7.080,-177.795
1.565,1.902,1.496,-180.481,-33.447,-194.641
1.819,2.019,1.451,-170.288,-64.880,-194.336
2.079,2.133,1.261,-157.776,-76.599,-179.138
2.287,2.207,0.946,-151.123,-83.496,-156.067
2.393,2.247,0.500,-141.968,-88.013,-126.038
2.409,2.188,0.090,-126.953,-98.755,-92.407
2.318,2.037,-0.126,-103.333,-119.019,-59.998
2.190,1.815,-0.174,-80.139,-141.113,-31.372
2.021,1.544,-0.170,-58.044,-156.433,-3.296
1.782,1.281,-0.201,-37.170,-157.166,27.344
1.530,1.093,-0.330,-19.592,-144.592,60.059
1.283,0.960,-0.469,-12.634,-129.517,88.623
1.048,0.830,-0.642,-11.536,-114.563,110.962
0.922,0.764,-0.753,-4.395,-100.037,132.324
0.781,0.708,-0.754,6.165,-92.041,150.940
0.637,0.616,-0.734,21.729,-82.825,163.940
0.506,0.450,-0.677,38.086,-67.139,173.523
0.393,0.302,-0.765,54.199,-44.495,186.340
0.292,0.199,-0.867,56.396,-27.710,199.829
0.214,0.208,-0.729,51.453,-27.283,214.233
0.150,0.111,-0.733,69.336,-20.142,218.994
0.113,0.034,-0.849,87.891,-12.024,220.520
0.099,-0.031,-0.939,107.788,-11.536,219.910
0.048,-0.137,-0.922,132.385,-15.991,215.698
0.022,-0.261,-0.815,153.442,-21.545,209.900
-0.050,-0.373,-0.755,172.363,-22.583,201.660
-0.105,-0.457,-0.671,185.669,-20.996,190.002
-0.089,-0.587,-0.499,192.871,-19.470,175.049
-0.095,-0.746,-0.295,196.899,-15.747,161.377
-0.150,-0.814,-0.068,196.899,-6.897,152.344
-0.168,-0.973,0.146,189.575,7.996,138.306
-0.155,-1.036,0.243,178.162,31.616,131.287
-0.135,-0.971,0.202,167.419,56.458,134.094
-0.144,-0.944,0.229,157.104,64.270,127.319
-0.172,-1.001,0.337,146.057,57.373,113.953
-0.178,-1.053,0.502,132.141,52.979,100.525
-0.221,-1.081,0.774,119.080,46.936,88.806
-0.295,-1.139,0.982,116.516,42.603,74.158
-0.312,-1.146,1.109,114.197,41.931,60.303
-0.321,-1.104,1.197,108.948,41.138,47.852
-0.289,-1.048,1.260,91.675,40.710,35.095
-0.164,-0.946,1.289,65.552,45.959,23.621
-0.035,-0.820,1.308,40.466,56.946,13.184
0.019,-0.701,1.325,26.245,68.420,4.578
0.030,-0.593,1.308,20.813,75.562,-2.441
0.038,-0.514,1.274,20.874,77.820,-10.559
0.024,-0.499,1.330,20.386,73.425,-21.362
-0.032,-0.491,1.463,20.020,66.101,-32.104
-0.076,-0.465,1.562,17.456,64.270,-41.809
-0.078,-0.425,1.614,10.681,67.261,-53.101
-0.031,-0.384,1.666,-0.061,69.824,-66.040
0.004,-0.362,1.729,-10.193,71.533,-79.529
0.001,-0.354,1.742,-20.081,75.928,-90.271
0.047,-0.178,1.742,-29.663,82.825,-94.116
0.080,-0.047,1.574,-34.973,88.623,-104.614
0.090,-0.203,1.624,-40.710,78.064,-124.084
0.165,-0.109,1.785,-52.795,77.942,-121.521
0.274,0.073,1.654,-52.673,104.919,-109.253
0.401,0.230,1.372,-50.354,126.770,-103.333
0.497,0.389,1.204,-54.504,119.019,-106.384
0.546,0.464,1.149,-63.049,96.191,-117.737
0.591,0.533,1.054,-71.777,77.087,-131.348
0.656,0.482,0.888,-82.275,49.316,-145.447
0.696,0.405,0.789,-94.971,5.066,-148.865
0.682,0.470,0.859,-105.713,-43.457,-133.240
0.668,0.562,0.955,-106.628,-74.829,-111.084
0.666,0.588,1.047,-98.877,-83.069,-91.125
0.633,0.572,1.078,-85.815,-74.036,-71.777
0.601,0.579,1.047,-73.547,-55.542,-50.781
0.585,0.591,1.001,-65.186,-38.208,-31.250
0.561,0.593,0.962,-58.411,-27.161,-15.747
0.525,0.574,0.920,-52.612,-21.973,-4.578
0.470,0.538,0.894,-47.363,-21.484,2.014
0.401,0.494,0.897,-43.823,-23.437,6.165
0.334,0.462,0.906,-39.795,-24.658,8.301
0.270,0.436,0.869,-32.532,-22.278,8.301
0.228,0.414,0.817,-24.048,-17.029,6.958
0.211,0.391,0.794,-14.709,-11.658,5.066
0.214,0.363,0.829,-7.874,-7.019,3.540
0.227,0.355,0.910,-3.540,-3.296,3.784
0.258,0.371,1.015,-1.892,2.197,6.592
0.291,0.391,1.064,1.404,13.245,10.559
0.302,0.377,1.030,6.165,26.489,12.573
0.296,0.343,1.003,8.911,33.997,13.794
0.277,0.304,0.990,9.094,36.865,15.808
0.258,0.281,0.959,8.911,38.757,18.982
0.238,0.265,0.929,11.292,39.551,21.362
0.214,0.245,0.900,16.296,38.879,21.545
0.177,0.210,0.853,20.996,36.560,19.409
0.154,0.196,0.812,22.278,30.212,15.808
0.152,0.188,0.808,18.921,18.738,10.681
0.159,0.183,0.832,13.855,4.211,4.639
0.179,0.182,0.848,7.629,-9.216,-0.732
0.208,0.173,0.872,0.610,-21.179,-4.211
0.230,0.175,0.934,-6.592,-30.273,-6.165
0.252,0.176,0.973,-11.719,-33.936,-5.859
0.269,0.171,0.982,-14.771,-31.494,-3.418
0.267,0.183,0.957,-16.479,-26.123,0.610
0.258,0.204,0.903,-16.296,-20.203,5.127
0.249,0.219,0.861,-14.832,-15.991,8.118
0.239,0.229,0.873,-12.878,-15.503,9.705
0.219,0.240,0.910,-11.475,-16.724,9.827
0.212,0.240,0.902,-8.789,-15.747,7.935
0.214,0.230,0.898,-6.165,-13.611,5.371
0.209,0.226,0.918,-4.517,-12.329,3.540
0.212,0.231,0.943,-4.456,-10.986,2.747
0.212,0.229,0.949,-3.235,-7.996,2.869
0.196,0.218,0.950,-0.244,-3.906,3.662
0.185,0.205,0.954,1.465,-0.305,4.944

-0.437,-0.876,2.135,-41.687,77.148,-52.490
-0.383,-0.894,2.238,-63.293,92.163,-72.083
-0.289,-0.769,2.243,-91.431,104.736,-86.609
-0.194,-0.621,2.258,-120.239,110.901,-99.854
-0.089,-0.421,2.308,-146.240,112.183,-113.342
0.083,-0.139,2.380,-176.575,110.840,-125.671
0.362,0.213,2.403,-206.360,107.910,-139.954
0.774,0.603,2.332,-232.849,101.013,-155.640
1.197,1.082,2.174,-247.437,85.632,-164.673
1.568,1.498,1.863,-250.671,62.927,-169.739
1.959,1.804,1.421,-247.925,30.579,-171.021
2.345,2.018,1.056,-235.718,-10.681,-162.903
2.660,2.023,0.731,-211.060,-50.354,-143.127
2.759,1.978,0.432,-179.687,-83.374,-107.361
2.685,1.877,0.170,-142.578,-107.788,-59.692
2.490,1.793,-0.145,-111.023,-122.009,-8.484
2.228,1.642,-0.366,-82.397,-133.423,33.875
1.942,1.417,-0.490,-58.350,-143.005,66.162
1.699,1.205,-0.530,-49.011,-148.987,95.337
1.449,1.029,-0.648,-48.767,-145.874,123.718
1.168,0.944,-0.738,-48.279,-138.000,150.818
0.987,0.847,-0.808,-47.363,-127.991,171.509
0.854,0.753,-0.870,-38.269,-114.624,185.852
0.726,0.600,-0.868,-23.132,-103.699,196.716
0.614,0.439,-0.837,-6.592,-92.163,208.435
0.487,0.315,-0.890,15.625,-74.158,222.595
0.355,0.165,-0.942,37.720,-57.129,236.389
0.276,0.020,-0.979,55.847,-42.236,248.779
0.214,-0.005,-1.026,76.355,-25.574,263.245
0.167,-0.063,-1.144,99.670,-7.812,271.484
0.094,-0.203,-1.232,128.235,4.028,269.836
0.004,-0.336,-1.209,151.611,4.700,263.611
-0.053,-0.496,-0.931,161.743,-3.479,252.197
-0.101,-0.662,-0.646,170.837,-5.615,234.680
-0.114,-0.843,-0.414,173.584,0.183,214.050
-0.148,-1.003,-0.150,170.166,6.348,194.092
-0.203,-1.092,0.102,166.565,14.526,177.429
-0.269,-1.267,0.402,161.194,25.635,160.828
-0.294,-1.276,0.522,156.494,45.837,153.015
-0.326,-1.214,0.509,153.870,61.646,147.644
-0.395,-1.166,0.511,147.949,61.401,135.498
-0.442,-1.125,0.567,139.038,54.382,119.446
-0.414,-1.060,0.615,131.714,52.856,104.736
-0.352,-0.967,0.654,131.531,57.800,92.773
-0.280,-0.947,0.734,132.874,57.068,79.041
-0.238,-0.958,0.876,125.427,50.842,65.430
-0.250,-0.972,1.075,111.511,46.509,55.725
-0.253,-0.946,1.222,92.529,51.636,49.500
-0.253,-0.829,1.348,71.106,65.125,46.387
-0.251,-0.716,1.393,52.429,83.923,41.626
-0.268,-0.573,1.360,35.767,105.469,32.349
-0.250,-0.436,1.273,21.606,122.498,16.602
-0.161,-0.313,1.243,7.263,125.610,-5.798
-0.042,-0.222,1.288,-4.456,117.554,-33.691
0.098,-0.162,1.411,-12.146,106.812,-61.401
0.203,-0.151,1.521,-14.709,96.802,-84.412
0.258,-0.168,1.616,-14.771,88.379,-98.816
0.269,-0.157,1.727,-15.686,80.872,-103.943
0.257,-0.118,1.798,-19.897,74.585,-104.980
0.240,-0.100,1.778,-24.780,71.838,-107.117
0.226,-0.064,1.716,-29.968,71.411,-110.229
0.251,-0.009,1.625,-36.804,70.251,-113.770
0.288,0.060,1.637,-43.030,65.552,-115.295
0.358,0.332,1.368,-45.105,64.331,-116.577
0.315,0.016,1.362,-43.579,42.542,-136.597
0.369,0.078,1.542,-48.096,28.625,-127.686
0.431,0.201,1.372,-39.429,57.068,-100.891
0.474,0.358,1.178,-28.015,82.703,-83.862
0.487,0.532,0.972,-27.588,86.853,-78.247
0.494,0.506,0.870,-42.969,70.313,-89.111
0.561,0.601,0.783,-58.228,44.189,-99.304
0.591,0.567,0.640,-60.608,12.207,-112.366
0.567,0.361,0.675,-71.594,-38.879,-124.512
0.549,0.397,0.901,-86.243,-88.379,-112.976
0.522,0.418,1.037,-85.938,-105.530,-92.346
0.481,0.400,1.048,-72.266,-93.750,-74.341
0.425,0.429,1.047,-57.739,-72.388,-55.542
0.361,0.426,1.057,-48.157,-50.842,-41.443
0.338,0.435,1.040,-43.579,-31.311,-30.762
0.307,0.452,1.026,-41.443,-17.883,-22.095
0.272,0.451,1.023,-40.100,-10.437,-17.822
0.247,0.438,1.011,-38.025,-5.554,-16.602
0.234,0.419,0.997,-34.912,-3.540,-16.602
0.227,0.404,0.990,-31.189,-3.418,-16.174
0.228,0.394,0.999,-27.161,-4.456,-15.686
0.231,0.372,0.977,-22.705,-5.432,-15.137
0.224,0.344,0.942,-18.188,-5.981,-13.855
0.211,0.328,0.924,-13.245,-5.432,-11.108
0.200,0.316,0.931,-7.263,-2.991,-7.019
0.195,0.301,0.956,-0.244,2.258,-3.540
0.192,0.279,0.978,6.226,9.033,-0.244
0.189,0.301,1.003,10.559,11.963,3.967
0.174,0.286,1.048,12.329,11.353,4.578
0.172,0.264,1.078,12.451,13.489,2.563
0.188,0.239,1.065,12.146,21.057,1.221
0.213,0.246,1.032,10.620,28.931,2.014
0.230,0.258,0.983,7.812,33.630,2.502
0.250,0.255,0.907,4.639,33.875,2.014
0.266,0.258,0.812,2.380,29.175,1.404
0.269,0.266,0.737,1.160,20.264,1.221
0.269,0.262,0.716,0.488,8.362,0.488
0.262,0.243,0.776,-0.732,-3.662,0.061
0.252,0.223,0.861,-1.648,-13.000,1.221
0.257,0.219,0.904,-3.357,-17.761,3.479
0.258,0.227,0.943,-4.211,-18.921,5.676
0.247,0.217,0.954,-3.113,-17.212,7.141
0.246,0.213,0.955,-3.601,-13.916,8.972
0.244,0.215,0.955,-5.554,-10.742,10.986
0.235,0.214,0.941,-6.042,-8.118,12.146
0.223,0.217,0.934,-5.981,-6.775,13.184
0.210,0.217,0.944,-6.104,-6.775,13.306
0.194,0.213,0.938,-5.066,-7.446,12.390
0.179,0.209,0.926,-3.967,-7.324,10.864
0.179,0.202,0.927,-2.625,-6.897,8.911
0.171,0.193,0.953,-0.427,-6.287,7.263
0.160,0.183,0.960,2.014,-3.723,5.981
0.156,0.182,0.952,3.296,-0.061,5.188
0.159,0.177,0.947,3.784,3.174,4.395
0.163,0.180,0.933,3.723,6.287,4.089

-0.390,-0.879,1.624,-63.721,74.097,-34.424
-0.331,-0.856,1.895,-86.548,83.130,-48.828
-0.283,-0.862,2.127,-103.394,96.069,-66.284
-0.266,-0.860,2.333,-119.873,108.398,-85.083
-0.236,-0.730,2.441,-141.174,118.530,-101.196
-0.135,-0.471,2.432,-164.978,125.488,-114.929
-0.010,-0.131,2.353,-185.913,125.183,-130.188
0.261,0.395,2.177,-204.651,110.962,-148.376
0.569,0.962,2.183,-221.802,78.125,-178.406
0.987,1.185,2.181,-231.567,31.616,-216.614
1.545,1.480,2.071,-239.136,-9.949,-234.741
2.200,1.794,1.859,-237.427,-42.175,-230.408
2.716,2.017,1.526,-230.164,-67.871,-212.585
3.068,2.145,1.072,-216.003,-89.417,-178.467
3.194,2.127,0.570,-188.965,-108.276,-126.953
3.086,2.045,0.140,-157.837,-128.357,-66.223
2.802,1.851,-0.307,-127.563,-143.555,-10.620
2.429,1.643,-0.585,-98.755,-154.663,34.119
2.138,1.457,-0.729,-73.486,-161.011,71.716
1.857,1.233,-0.798,-52.124,-163.269,101.074
1.558,1.018,-0.837,-36.804,-160.095,125.671
1.298,0.849,-0.903,-29.236,-148.193,146.362
1.144,0.696,-1.008,-23.376,-128.052,164.001
1.003,0.577,-1.108,-13.733,-106.567,179.687
0.855,0.420,-1.109,0.427,-89.417,193.420
0.694,0.222,-1.101,21.729,-72.937,203.491
0.539,0.042,-1.122,46.265,-56.213,214.661
0.405,-0.124,-1.095,69.214,-41.992,228.394
0.285,-0.237,-1.010,92.407,-26.001,243.958
0.183,-0.326,-0.891,116.577,-10.742,259.277
0.074,-0.410,-0.837,139.771,1.831,269.653
-0.021,-0.514,-0.744,156.616,9.644,273.071
-0.100,-0.603,-0.594,169.495,11.963,270.935
-0.202,-0.736,-0.473,176.941,11.841,262.207
-0.285,-0.818,-0.243,173.462,8.972,249.084
-0.321,-0.892,-0.105,173.523,10.376,232.361
-0.348,-1.014,0.080,170.105,13.367,212.036
-0.407,-1.138,0.379,161.682,18.494,194.336
-0.434,-1.111,0.492,150.940,37.476,184.143
-0.452,-1.032,0.492,137.573,53.284,173.096
-0.468,-0.982,0.494,120.911,61.523,155.884
-0.468,-0.965,0.509,107.361,68.176,134.949
-0.442,-0.968,0.518,101.685,73.914,119.141
-0.402,-0.913,0.564,101.074,76.782,109.863
-0.361,-0.857,0.613,103.271,75.378,100.952
-0.292,-0.859,0.634,105.591,69.336,88.074
-0.248,-0.907,0.798,104.126,54.382,74.890
-0.253,-0.997,1.104,91.797,36.560,64.636
-0.277,-1.074,1.461,65.552,28.625,57.861
-0.286,-1.035,1.694,22.644,41.687,54.016
-0.299,-0.869,1.730,-21.240,74.768,48.340
-0.224,-0.680,1.527,-53.650,110.046,35.583
-0.103,-0.520,1.297,-74.097,128.784,16.418
-0.043,-0.381,1.235,-82.031,125.305,-3.601
-0.009,-0.262,1.272,-78.003,108.704,-22.949
0.025,-0.245,1.273,-63.660,93.201,-44.556
0.053,-0.209,1.315,-52.429,79.773,-64.392
0.104,-0.144,1.390,-46.265,64.392,-80.505
0.189,-0.103,1.468,-44.983,49.133,-95.459
0.274,-0.057,1.575,-49.622,35.828,-108.704
0.305,-0.023,1.639,-55.176,29.053,-118.591
0.307,0.024,1.598,-60.486,31.921,-124.268
0.326,0.091,1.510,-64.819,38.086,-126.404
0.318,0.104,1.466,-68.665,43.457,-126.099
0.377,0.467,1.236,-66.833,53.589,-121.948
0.348,0.341,1.054,-57.251,50.781,-140.320
0.372,0.156,1.270,-57.312,33.508,-149.292
0.445,0.353,1.283,-47.119,51.392,-123.230
0.486,0.549,1.094,-28.076,84.045,-99.915
0.529,0.747,0.749,-26.062,92.285,-95.337
0.508,0.746,0.896,-44.800,63.171,-105.347
0.492,0.760,0.991,-48.035,44.983,-116.638
0.518,0.793,0.782,-39.185,45.349,-125.244
0.531,0.606,0.675,-32.776,19.043,-144.348
0.513,0.389,0.626,-44.067,-30.823,-147.400
0.521,0.441,0.870,-75.256,-82.275,-124.207
0.547,0.525,1.105,-88.013,-109.680,-96.375
0.562,0.525,1.234,-84.656,-105.774,-76.172
0.546,0.521,1.241,-77.026,-80.750,-58.228
0.542,0.543,1.182,-71.289,-49.438,-40.222
0.540,0.592,1.052,-66.101,-21.362,-22.949
0.522,0.630,0.952,-64.148,-4.578,-10.193
0.473,0.642,0.894,-62.012,3.418,-2.197
0.426,0.644,0.834,-56.580,8.728,3.479
0.391,0.639,0.783,-46.936,11.108,7.324
0.370,0.627,0.752,-34.546,9.155,9.399
0.353,0.607,0.747,-21.729,4.456,10.254
0.329,0.552,0.780,-11.658,-1.038,9.399
0.303,0.493,0.837,-6.348,-4.395,8.606
0.277,0.437,0.892,-4.517,-4.639,9.521
0.247,0.400,0.957,-4.883,-1.709,12.085
0.220,0.370,0.987,-5.920,5.859,14.648
0.199,0.362,0.968,-6.042,16.968,15.991
0.182,0.379,0.927,-6.042,27.832,15.198
0.179,0.387,0.880,-6.592,35.950,11.169
0.190,0.384,0.833,-5.859,41.016,5.310
0.205,0.386,0.796,-3.113,43.274,0.183
0.246,0.403,0.752,0.488,43.640,-3.479
0.289,0.410,0.712,5.005,40.710,-6.958
0.323,0.391,0.702,7.324,33.569,-9.888
0.345,0.366,0.726,6.042,23.621,-10.193
0.353,0.346,0.760,2.441,13.489,-7.385
0.353,0.323,0.785,-1.648,5.127,-2.380
0.343,0.305,0.816,-7.568,-1.526,3.540
0.323,0.308,0.854,-12.512,-5.249,10.254
0.302,0.322,0.867,-15.442,-6.714,15.259
0.287,0.325,0.859,-17.090,-5.920,17.212
0.274,0.328,0.843,-17.517,-4.578,17.517
0.270,0.341,0.836,-17.334,-3.723,17.151
0.268,0.341,0.833,-16.418,-3.296,15.930
0.268,0.346,0.834,-15.259,-3.296,14.465
0.273,0.350,0.837,-14.526,-3.235,13.123
0.276,0.348,0.855,-12.451,-3.357,11.841
0.274,0.341,0.896,-10.498,-3.296,10.803
0.277,0.326,0.927,-9.705,-1.587,10.132
0.278,0.319,0.943,-10.559,2.197,10.376
0.267,0.318,0.951,-11.963,6.714,11.169
0.253,0.316,0.956,-13.611,11.230,12.085
0.240,0.319,0.940,-15.076,16.113,12.451

-0.170,-0.999,1.887,-3.296,47.485,-63.477
-0.089,-0.968,1.897,-29.663,71.777,-73.425
-0.018,-0.886,1.878,-56.091,93.140,-83.130
0.010,-0.782,1.856,-73.975,103.760,-94.849
0.116,-0.581,1.866,-87.891,100.220,-104.065
0.229,-0.335,1.910,-99.731,86.304,-114.929
0.363,-0.119,2.004,-109.131,69.885,-130.859
0.536,0.246,2.045,-125.122,52.246,-151.733
0.744,0.499,2.125,-147.644,31.616,-180.725
1.040,0.769,2.159,-169.189,13.550,-206.421
1.359,1.143,2.149,-191.406,-2.930,-221.252
1.724,1.434,2.007,-213.379,-22.217,-225.525
2.036,1.790,1.745,-227.539,-44.983,-216.919
2.262,2.065,1.452,-223.328,-66.467,-199.524
2.458,2.208,1.135,-201.355,-82.947,-177.856
2.537,2.097,0.757,-173.035,-98.633,-149.475
2.459,1.924,0.387,-147.095,-116.821,-112.244
2.308,1.783,0.200,-126.160,-135.132,-73.303
2.161,1.571,0.106,-109.070,-145.691,-38.940
1.997,1.295,-0.092,-98.083,-146.179,-8.484
1.787,1.092,-0.315,-94.788,-140.625,22.827
1.587,0.998,-0.443,-93.445,-138.245,58.350
1.400,0.904,-0.510,-89.783,-135.925,89.966
1.176,0.789,-0.521,-86.365,-130.615,114.197
0.977,0.673,-0.531,-80.566,-118.958,135.681
0.810,0.563,-0.652,-65.613,-93.323,156.860
0.681,0.499,-0.811,-42.542,-65.002,180.298
0.551,0.463,-0.856,-19.897,-47.607,202.209
0.436,0.380,-0.834,2.258,-36.133,218.445
0.339,0.280,-0.824,28.503,-23.987,229.675
0.248,0.219,-0.861,58.167,-12.024,237.610
0.194,0.152,-0.958,91.248,-5.493,241.089
0.176,0.063,-1.024,125.610,-7.202,239.624
0.138,-0.021,-1.003,158.325,-15.930,235.962
0.089,-0.188,-1.075,188.171,-27.405,231.140
0.044,-0.305,-0.987,198.425,-42.542,227.112
0.065,-0.422,-0.792,204.529,-57.190,225.403
0.064,-0.526,-0.558,216.614,-59.448,221.863
0.016,-0.693,-0.249,226.013,-56.946,216.553
-0.085,-0.851,0.014,227.905,-42.297,206.848
-0.072,-0.991,0.098,223.145,-14.954,198.853
-0.125,-1.018,0.246,210.632,-0.061,197.754
-0.205,-1.076,0.415,201.599,9.033,184.753
-0.320,-1.102,0.495,185.791,16.602,170.532
-0.402,-1.073,0.471,168.518,26.917,161.133
-0.414,-0.926,0.406,152.649,37.903,156.006
-0.369,-0.792,0.352,142.700,43.640,143.188
-0.310,-0.781,0.372,141.663,35.095,119.934
-0.260,-0.829,0.499,145.447,14.954,95.276
-0.257,-0.933,0.713,151.917,-8.667,74.890
-0.310,-1.042,0.988,153.748,-28.320,59.448
-0.370,-1.091,1.243,141.663,-35.278,48.584
-0.359,-1.048,1.412,115.479,-27.771,40.588
-0.269,-0.964,1.403,82.764,-9.705,32.471
-0.204,-0.862,1.297,53.772,11.902,23.926
-0.208,-0.763,1.187,37.048,32.654,18.188
-0.233,-0.637,1.132,32.837,48.340,14.587
-0.228,-0.536,1.105,36.987,54.871,7.385
-0.176,-0.500,1.106,45.776,54.321,-5.005
-0.164,-0.555,1.214,56.641,49.072,-21.301
-0.197,-0.657,1.411,63.416,43.884,-36.987
-0.236,-0.724,1.609,59.570,44.983,-48.584
-0.242,-0.750,1.698,43.152,55.542,-57.129
-0.232,-0.756,1.635,19.409,74.402,-63.171
-0.208,-0.603,1.533,-4.517,93.445,-64.575
-0.197,-0.554,1.374,-17.212,109.863,-70.374
-0.161,-0.518,1.260,-21.851,118.225,-77.209
-0.077,-0.411,1.149,-20.813,119.324,-78.918
-0.040,-0.348,1.075,-14.954,110.107,-83.984
0.005,-0.323,1.243,-9.888,88.440,-88.623
0.081,-0.272,1.326,-6.042,81.360,-87.952
0.155,-0.148,1.299,-3.906,88.135,-86.670
0.213,-0.125,1.292,-10.315,86.243,-90.454
0.231,-0.095,1.357,-17.395,76.233,-93.323
0.208,-0.016,1.292,-28.748,75.317,-93.811
0.209,0.007,1.158,-43.518,76.294,-99.792
0.255,0.033,1.087,-50.842,59.753,-108.643
0.241,0.002,1.034,-52.551,30.151,-115.784
0.235,-0.029,1.004,-65.430,-1.038,-115.845
0.273,0.010,1.051,-81.299,-27.893,-107.178
0.304,0.076,1.151,-87.341,-43.579,-94.788
0.328,0.110,1.246,-86.243,-44.617,-81.299
0.356,0.138,1.281,-80.627,-34.180,-65.613
0.357,0.191,1.250,-72.388,-20.264,-48.523
0.336,0.250,1.211,-67.566,-10.498,-34.241
0.312,0.296,1.219,-68.604,-7.507,-25.146
0.276,0.301,1.211,-69.702,-3.845,-21.729
0.234,0.283,1.140,-68.665,4.578,-20.874
0.185,0.271,1.022,-64.331,15.381,-20.874
0.164,0.286,0.902,-54.810,22.522,-21.240
0.173,0.308,0.841,-41.687,19.958,-22.949
0.189,0.310,0.857,-26.917,9.094,-26.367
0.204,0.268,0.936,-14.160,-1.648,-29.480
0.214,0.225,1.028,-6.165,-4.883,-28.748
0.226,0.190,1.053,-0.732,0.488,-22.705
0.224,0.202,1.037,2.869,10.132,-12.573
0.202,0.213,1.038,4.333,17.578,-3.906
0.181,0.185,1.032,4.883,24.963,0.732
0.170,0.150,0.991,6.226,31.494,4.639
0.151,0.148,0.936,8.667,36.438,8.362
0.144,0.140,0.902,11.658,38.574,9.888
0.142,0.128,0.901,14.282,37.354,9.094
0.143,0.112,0.907,14.160,33.936,6.836
0.154,0.097,0.891,11.780,28.809,4.028
0.171,0.086,0.862,7.385,22.339,1.587
0.185,0.079,0.849,1.404,13.245,-0.305
0.190,0.070,0.861,-5.127,2.136,-0.977
0.196,0.061,0.901,-10.559,-7.568,0.061
0.197,0.052,0.944,-13.000,-13.855,2.197
0.192,0.031,0.986,-14.038,-15.991,4.639
0.173,0.005,1.008,-13.489,-15.320,7.935
0.159,0.002,1.028,-14.526,-13.672,11.841
0.141,0.005,1.051,-15.320,-10.559,14.648
0.125,0.000,1.033,-13.367,-4.578,15.625
0.120,0.008,1.012,-13.123,0.122,15.930
0.119,0.016,1.003,-14.282,2.136,15.381
0.116,0.023,0.985,-14.648,2.502,13.977
0.115,0.031,0.964,-13.794,4.211,11.841
0.121,0.040,0.947,-11.963,5.981,9.766

-0.356,-1.021,1.826,-39.307,85.938,-4.150
-0.430,-1.061,1.976,-62.439,106.934,-19.348
-0.393,-1.000,2.003,-93.628,123.596,-39.734
-0.321,-0.817,2.007,-122.009,131.470,-61.584
-0.232,-0.568,2.031,-143.677,130.676,-83.862
-0.106,-0.265,2.090,-161.621,125.671,-107.361
0.085,0.012,2.119,-176.025,115.173,-131.348
0.321,0.310,2.146,-185.730,97.168,-151.367
0.631,0.633,2.155,-190.918,71.106,-167.603
0.972,0.989,2.177,-192.200,38.025,-180.847
1.368,1.253,2.182,-192.932,3.113,-187.683
1.712,1.541,2.178,-195.496,-24.353,-179.443
2.051,1.807,2.081,-194.275,-36.499,-159.424
2.307,2.058,1.902,-196.777,-36.255,-138.916
2.507,2.035,1.469,-192.993,-28.442,-117.554
2.553,1.892,0.928,-177.307,-27.466,-87.830
2.418,1.779,0.522,-156.311,-42.358,-47.913
2.235,1.627,0.242,-138.428,-64.941,-10.864
2.068,1.462,-0.039,-117.615,-83.252,20.508
1.897,1.296,-0.298,-100.220,-99.243,49.744
1.613,1.166,-0.444,-85.083,-112.976,79.285
1.380,1.033,-0.531,-76.416,-119.751,105.347
1.231,0.912,-0.664,-67.078,-114.807,126.038
1.091,0.800,-0.822,-52.002,-102.966,146.240
0.909,0.674,-0.942,-31.189,-89.783,166.443
0.710,0.563,-1.042,-10.376,-77.026,185.852
0.538,0.466,-1.119,7.690,-66.956,200.256
0.406,0.292,-1.164,27.161,-61.279,206.665
0.296,0.124,-1.171,50.110,-57.739,210.388
0.209,-0.009,-1.166,73.730,-52.673,213.623
0.185,-0.118,-1.125,93.445,-45.044,214.539
0.175,-0.251,-1.041,110.352,-37.781,213.684
0.156,-0.340,-0.882,118.896,-31.555,213.745
0.143,-0.449,-0.802,127.991,-21.118,213.867
0.109,-0.543,-0.745,139.465,-7.874,214.355
0.070,-0.657,-0.646,152.344,2.014,213.135
0.043,-0.743,-0.463,165.466,8.179,209.290
-0.009,-0.873,-0.197,176.208,10.254,201.965
-0.041,-0.983,-0.027,180.054,17.761,196.655
-0.048,-0.940,-0.015,179.443,32.715,198.303
-0.046,-0.916,-0.000,178.162,39.612,193.298
-0.017,-0.902,0.161,177.551,37.109,182.800
-0.068,-1.072,0.357,175.964,35.400,168.335
-0.139,-1.172,0.552,170.349,37.781,167.114
-0.283,-1.250,0.756,163.696,46.753,169.128
-0.355,-1.278,0.923,148.193,59.204,166.260
-0.379,-1.265,0.968,128.540,72.571,157.898
-0.394,-1.212,0.936,111.450,81.543,146.118
-0.364,-1.122,0.828,97.961,87.097,133.423
-0.273,-1.022,0.820,81.116,87.036,118.042
-0.200,-0.950,0.871,68.970,79.834,100.464
-0.112,-0.918,0.874,63.477,73.303,83.679
-0.001,-0.909,0.946,55.054,67.383,72.144
0.085,-0.762,1.101,43.335,59.692,64.819
0.108,-0.745,1.167,35.828,57.251,51.819
0.064,-0.805,1.147,29.663,62.317,36.804
0.002,-0.750,1.366,17.456,62.805,25.574
-0.095,-0.842,1.466,8.667,63.049,7.080
-0.123,-0.798,1.506,-5.859,69.824,-14.954
-0.090,-0.751,1.493,-19.592,76.233,-40.039
0.014,-0.562,1.542,-30.823,76.782,-62.317
0.058,-0.630,1.445,-28.748,78.308,-88.135
0.138,-0.520,1.520,-31.555,74.036,-105.835
0.184,-0.452,1.591,-31.006,67.200,-116.516
0.225,-0.374,1.594,-32.227,64.697,-125.122
0.277,-0.357,1.508,-34.302,61.584,-129.822
0.363,-0.224,1.616,-40.894,49.072,-128.845
0.402,0.040,1.621,-39.063,39.429,-125.427
0.418,-0.198,1.539,-31.860,37.781,-143.982
0.502,-0.078,1.516,-30.396,31.006,-138.306
0.528,0.100,1.493,-29.358,32.166,-120.483
0.530,0.191,1.425,-30.273,37.354,-112.061
0.521,0.219,1.376,-32.959,35.217,-108.704
0.504,0.271,1.471,-35.767,22.888,-104.797
0.447,0.271,1.427,-45.410,23.071,-100.647
0.417,0.374,1.266,-60.303,37.354,-96.924
0.413,0.444,1.093,-70.190,40.588,-97.412
0.439,0.407,1.037,-68.298,18.555,-105.713
0.458,0.402,1.028,-61.462,-9.583,-106.323
0.489,0.394,1.011,-56.702,-27.771,-100.098
0.521,0.368,0.952,-56.580,-36.743,-88.989
0.529,0.411,0.960,-60.669,-44.678,-74.219
0.507,0.411,1.035,-60.730,-50.720,-60.120
0.494,0.423,1.074,-55.298,-47.363,-45.898
0.455,0.421,1.049,-49.500,-37.292,-33.081
0.400,0.402,1.003,-46.448,-27.222,-22.705
0.351,0.374,0.959,-45.837,-18.433,-14.038
0.323,0.395,0.913,-45.044,-9.583,-5.676
0.295,0.398,0.863,-40.710,-3.113,0.061
0.275,0.371,0.818,-34.180,0.488,3.540
0.242,0.349,0.796,-26.550,1.892,6.592
0.225,0.334,0.785,-19.470,0.549,8.545
0.215,0.291,0.822,-14.282,-3.357,8.118
0.200,0.243,0.883,-10.498,-4.822,7.812
0.204,0.228,0.896,-8.911,-2.258,9.277
0.214,0.223,0.901,-9.094,0.488,10.559
0.214,0.206,0.912,-7.690,3.662,11.047
0.206,0.199,0.907,-6.531,7.629,11.169
0.196,0.200,0.884,-6.592,10.132,10.132
0.191,0.199,0.859,-4.761,13.000,6.470
0.193,0.144,0.823,0.122,15.503,1.770
0.193,0.124,0.844,1.282,13.489,0.488
0.180,0.174,0.920,1.892,11.536,0.671
0.162,0.073,0.857,6.287,14.282,-3.235
0.180,0.083,0.853,0.610,12.878,-3.662
0.191,0.110,0.906,-3.723,7.019,-2.136
0.198,0.082,0.891,-4.272,4.395,-2.197
0.213,0.111,0.898,-7.080,0.305,0.244
0.216,0.116,0.925,-8.301,-2.991,2.502
0.225,0.111,0.933,-8.728,-3.296,3.662
0.229,0.107,0.948,-9.644,-2.930,5.310
0.234,0.107,0.963,-9.705,-2.014,8.301
0.224,0.110,0.949,-8.301,-0.549,11.597
0.210,0.117,0.940,-6.470,1.221,13.550
0.201,0.115,0.948,-4.517,0.000,14.160
0.197,0.108,0.971,-3.235,-2.502,13.855
0.182,0.108,0.998,-2.502,-3.357,12.939
0.174,0.106,1.006,-2.930,-3.174,11.047
0.183,0.116,1.008,-5.249,-2.686,9.460

0.005,-0.505,1.971,-79.102,57.251,-66.528
0.076,-0.367,2.053,-104.431,63.293,-78.430
0.190,-0.162,2.035,-130.676,69.702,-89.172
0.319,0.067,2.013,-152.161,70.374,-99.365
0.440,0.360,2.003,-164.856,61.707,-109.802
0.602,0.678,1.946,-173.523,46.265,-122.131
0.849,0.959,1.816,-178.894,27.405,-132.996
1.125,1.282,1.744,-178.162,2.686,-137.451
1.400,1.513,1.680,-174.561,-23.315,-136.780
1.642,1.757,1.604,-168.152,-44.434,-124.512
1.785,1.888,1.492,-156.494,-54.138,-106.628
1.888,1.986,1.297,-143.982,-50.171,-84.351
1.935,1.901,0.926,-124.756,-39.063,-59.448
1.922,1.804,0.566,-110.229,-35.828,-29.053
1.824,1.717,0.236,-95.398,-44.373,5.493
1.584,1.610,0.047,-82.275,-63.416,36.987
1.380,1.481,-0.077,-71.594,-81.909,65.735
1.204,1.275,-0.194,-61.035,-96.191,89.355
1.031,1.125,-0.268,-50.232,-103.088,109.131
0.932,1.021,-0.368,-41.687,-102.051,127.686
0.819,0.905,-0.455,-32.776,-98.267,141.602
0.707,0.778,-0.500,-26.001,-92.896,154.297
0.614,0.677,-0.564,-14.954,-80.444,168.396
0.519,0.560,-0.593,-2.441,-67.749,179.260
0.427,0.429,-0.580,9.155,-56.763,185.974
0.354,0.298,-0.581,21.179,-45.959,190.552
0.295,0.173,-0.607,33.508,-37.109,193.054
0.233,0.072,-0.627,47.791,-29.968,194.458
0.177,-0.016,-0.636,65.063,-23.437,193.787
0.129,-0.130,-0.617,81.604,-17.578,188.904
0.075,-0.234,-0.541,94.604,-12.207,181.885
0.030,-0.339,-0.485,105.286,-6.165,174.988
0.000,-0.431,-0.446,110.046,2.258,167.847
0.011,-0.472,-0.443,111.328,10.986,162.781
0.030,-0.515,-0.405,117.371,17.273,157.104
0.043,-0.604,-0.284,126.343,18.250,149.231
0.025,-0.713,-0.045,129.700,13.245,140.320
-0.011,-0.844,0.213,127.869,10.132,131.531
-0.059,-0.949,0.425,123.352,12.939,125.488
-0.150,-0.955,0.608,117.432,19.165,121.094
-0.216,-1.035,0.715,107.971,27.344,113.708
-0.310,-0.970,0.719,93.323,38.330,112.305
-0.302,-0.806,0.587,79.895,54.321,106.628
-0.240,-0.673,0.480,71.716,61.890,91.431
-0.139,-0.605,0.476,73.059,55.664,72.266
-0.048,-0.626,0.545,81.421,41.443,54.199
-0.010,-0.681,0.693,91.248,23.132,39.978
-0.008,-0.771,0.883,94.116,2.930,31.616
-0.016,-0.860,1.109,85.022,-9.949,30.945
-0.027,-0.879,1.296,64.087,-10.437,37.659
-0.038,-0.813,1.417,40.710,5.554,49.133
-0.069,-0.746,1.402,23.193,33.630,60.669
-0.117,-0.681,1.255,10.742,64.514,66.833
-0.141,-0.597,1.097,0.549,87.830,65.979
-0.153,-0.550,1.072,-5.127,96.619,56.580
-0.195,-0.547,1.179,-3.296,93.567,40.466
-0.228,-0.547,1.254,4.944,87.769,19.592
-0.217,-0.535,1.256,13.062,82.275,-3.418
-0.176,-0.504,1.288,17.456,73.792,-28.564
-0.118,-0.556,1.328,19.531,61.462,-54.871
0.063,-0.272,1.337,18.738,47.974,-73.303
0.024,-0.427,1.532,21.545,30.151,-101.501
0.108,-0.621,1.779,18.311,23.987,-119.873
0.203,-0.445,1.806,10.681,50.110,-103.821
0.250,-0.216,1.609,7.812,78.186,-91.309
0.286,-0.131,1.449,-1.038,81.848,-95.215
0.269,-0.074,1.453,-11.475,69.702,-102.112
0.329,-0.021,1.482,-14.404,62.622,-102.417
0.297,0.212,1.630,-4.028,65.308,-99.854
0.367,0.088,0.862,14.648,91.003,-114.624
0.364,0.176,0.990,13.428,42.297,-124.084
0.284,0.202,1.734,-8.362,-28.687,-130.493
0.331,0.037,1.507,1.709,-0.061,-141.418
0.365,0.077,1.273,-3.418,18.250,-135.010
0.409,0.212,1.327,-28.259,0.488,-122.009
0.462,0.306,1.363,-48.279,-12.878,-111.389
0.488,0.368,1.354,-59.265,-11.658,-101.440
0.508,0.464,1.307,-63.293,-3.662,-89.111
0.526,0.530,1.221,-61.890,1.831,-76.843
0.519,0.564,1.123,-55.969,2.502,-65.857
0.483,0.589,1.089,-48.523,-0.427,-56.091
0.448,0.593,1.106,-41.382,-4.456,-48.889
0.423,0.579,1.114,-33.752,-6.836,-43.274
0.403,0.569,1.085,-27.039,-7.629,-37.598
0.373,0.562,1.069,-21.362,-7.202,-31.799
0.350,0.536,1.056,-18.127,-5.859,-28.076
0.350,0.513,1.015,-14.893,-3.479,-24.170
0.344,0.496,0.967,-11.719,-0.732,-19.531
0.326,0.480,0.921,-7.812,3.235,-15.320
0.299,0.435,0.857,-3.906,7.874,-12.878
0.273,0.400,0.815,-0.916,12.207,-11.108
0.262,0.364,0.801,1.343,16.174,-9.460
0.262,0.310,0.778,2.625,19.165,-8.545
0.247,0.290,0.791,1.465,18.372,-5.920
0.236,0.264,0.788,2.014,19.165,-3.418
0.233,0.231,0.796,2.502,20.020,-2.502
0.228,0.192,0.821,1.099,18.127,-2.075
0.218,0.159,0.807,-0.610,15.015,-1.038
0.214,0.156,0.782,-2.075,10.742,1.099
0.210,0.136,0.805,-5.920,4.883,1.038
0.222,0.118,0.845,-9.888,-1.160,0.916
0.247,0.135,0.885,-14.648,-5.432,2.747
0.255,0.123,0.911,-17.273,-6.958,3.845
0.252,0.116,0.917,-17.273,-5.371,5.737
0.244,0.114,0.918,-17.456,-3.418,8.362
0.236,0.111,0.908,-18.250,-1.099,10.498
0.236,0.119,0.911,-18.921,0.793,12.451
0.239,0.126,0.933,-19.897,0.916,13.245
0.241,0.119,0.956,-20.081,0.122,13.123
0.239,0.118,0.965,-19.043,0.488,13.184
0.225,0.116,0.941,-16.174,2.625,13.000
0.216,0.109,0.925,-12.573,4.944,12.451
0.216,0.097,0.951,-10.864,5.676,11.841
0.219,0.093,0.981,-10.193,5.188,11.963
0.217,0.094,0.971,-9.094,6.165,12.573
0.207,0.102,0.953,-6.531,8.667,13.245
0.201,0.102,0.959,-5.005,10.071,13.245
0.204,0.103,0.980,-5.188,9.521,12.878
0.208,0.111,0.976,-5.005,9.216,12.939

-0.160,-1.048,1.678,-54.504,54.443,-14.282
-0.084,-1.026,1.763,-64.331,71.838,-16.602
-0.019,-0.903,1.832,-77.454,88.379,-21.240
0.074,-0.770,1.889,-96.191,100.708,-31.799
0.163,-0.669,1.972,-114.685,106.445,-45.105
0.265,-0.493,2.129,-133.728,107.239,-52.429
0.388,-0.280,2.286,-154.480,109.558,-55.847
0.553,0.165,2.325,-183.350,115.173,-61.523
0.728,0.587,2.288,-225.647,113.342,-83.496
0.983,0.758,2.194,-261.963,96.924,-115.723
1.206,1.155,1.961,-287.476,76.172,-130.554
1.427,1.658,1.612,-304.932,51.086,-135.132
1.668,2.022,1.318,-307.434,15.747,-139.099
1.890,2.425,0.976,-289.062,-22.522,-140.808
2.153,2.766,0.595,-243.652,-53.955,-145.874
2.326,2.817,0.251,-165.100,-79.895,-157.471
2.402,2.613,0.030,-79.651,-108.398,-160.339
2.305,2.280,-0.173,-15.808,-139.648,-144.287
2.087,1.888,-0.249,-4.272,-171.387,-112.732
1.849,1.562,-0.233,-16.907,-188.477,-70.374
1.581,1.285,-0.368,-23.804,-178.833,-22.644
1.300,1.107,-0.546,-20.813,-158.386,24.414
1.044,0.908,-0.773,-2.258,-141.602,67.322
0.807,0.712,-0.905,15.930,-134.460,100.891
0.532,0.585,-0.839,23.437,-138.794,127.930
0.299,0.458,-0.740,25.818,-138.855,146.240
0.177,0.335,-0.729,29.053,-125.916,158.264
0.101,0.256,-0.794,37.354,-105.957,168.274
0.036,0.149,-0.903,55.969,-86.914,174.927
0.012,0.090,-0.969,70.313,-73.730,179.687
0.025,0.010,-0.964,82.886,-64.941,181.946
0.041,-0.104,-0.904,99.365,-56.274,181.335
0.037,-0.226,-0.829,119.324,-47.424,182.312
0.007,-0.351,-0.700,138.855,-41.321,183.289
-0.047,-0.476,-0.554,157.166,-36.926,182.434
-0.100,-0.571,-0.419,172.607,-33.081,178.162
-0.131,-0.621,-0.322,183.899,-30.762,169.800
-0.110,-0.667,-0.262,191.284,-29.724,156.921
-0.059,-0.735,-0.180,193.604,-29.846,142.090
-0.042,-0.770,-0.014,191.772,-28.381,130.249
-0.048,-0.838,0.128,185.425,-20.813,122.498
-0.038,-0.881,0.227,173.828,-7.446,118.774
-0.012,-0.932,0.283,162.415,8.484,117.676
-0.076,-0.934,0.402,155.151,21.545,117.371
-0.089,-1.028,0.421,151.306,30.334,108.948
-0.133,-1.097,0.518,141.235,30.396,104.065
-0.205,-1.186,0.635,134.094,28.320,100.464
-0.273,-1.230,0.722,128.296,27.771,100.342
-0.323,-1.171,0.797,125.427,29.358,102.173
-0.371,-1.152,0.845,122.620,31.555,95.459
-0.398,-1.140,0.890,107.544,31.311,82.703
-0.373,-1.124,0.968,78.857,29.968,67.871
-0.315,-1.124,1.097,46.753,31.189,54.260
-0.255,-1.095,1.331,16.907,34.668,43.945
-0.201,-1.046,1.531,-4.700,45.715,35.461
-0.167,-1.016,1.568,-14.282,68.726,26.672
-0.139,-0.996,1.441,-16.663,93.323,19.043
-0.114,-0.910,1.314,-21.301,106.201,14.160
-0.089,-0.793,1.276,-26.123,105.042,8.606
-0.067,-0.687,1.317,-27.283,94.910,-1.770
-0.050,-0.625,1.386,-22.827,81.726,-16.479
-0.006,-0.559,1.454,-18.005,70.862,-33.447
0.044,-0.578,1.567,-16.602,61.340,-47.119
0.178,-0.155,1.630,-19.592,58.594,-57.739
0.163,-0.383,1.623,-12.329,56.091,-101.624
0.241,-0.614,1.708,-23.376,54.993,-123.596
0.332,-0.458,1.644,-30.823,72.083,-101.624
0.386,-0.142,1.493,-25.208,89.355,-75.989
0.391,0.107,1.381,-21.301,90.881,-72.510
0.383,0.179,1.083,-21.545,87.952,-89.722
0.349,0.205,1.189,-34.363,67.261,-111.511
0.348,0.231,1.322,-37.964,50.842,-126.343
0.421,0.302,1.240,-35.095,56.458,-137.024
0.491,0.284,1.128,-35.400,56.152,-152.832
0.563,0.163,0.980,-42.480,36.377,-163.452
0.647,0.149,0.946,-74.097,-2.258,-153.687
0.693,0.296,1.104,-107.788,-40.161,-130.615
0.696,0.341,1.210,-119.934,-58.167,-110.596
0.708,0.362,1.175,-116.638,-54.810,-90.759
0.692,0.447,1.082,-107.605,-44.312,-67.810
0.652,0.502,1.014,-98.694,-41.382,-48.767
0.596,0.514,0.993,-88.806,-43.579,-36.194
0.510,0.508,0.995,-77.271,-43.823,-27.405
0.425,0.487,0.973,-67.810,-41.748,-22.461
0.355,0.443,0.932,-60.669,-38.757,-20.508
0.297,0.400,0.873,-50.171,-34.973,-18.494
0.244,0.366,0.852,-38.513,-30.334,-15.564
0.216,0.339,0.873,-31.494,-26.367,-13.123
0.199,0.267,0.921,-26.123,-22.217,-11.169
0.190,0.206,0.956,-20.386,-15.930,-4.761
0.181,0.184,0.968,-14.771,-6.287,3.601
0.169,0.188,1.003,-12.512,4.333,10.742
0.163,0.203,1.015,-9.705,17.395,14.893
0.174,0.198,1.018,-5.859,29.907,14.282
0.177,0.169,1.005,0.305,43.030,11.719
0.178,0.143,0.977,9.644,54.871,10.376
0.178,0.136,0.945,19.836,62.988,10.132
0.180,0.158,0.913,28.320,65.613,9.827
0.192,0.159,0.876,37.415,63.293,7.690
0.205,0.147,0.835,45.227,57.068,3.906
0.210,0.135,0.815,45.105,48.157,-0.610
0.216,0.118,0.794,39.001,36.987,-5.005
0.229,0.108,0.773,30.090,24.658,-9.399
0.247,0.101,0.773,17.761,11.719,-12.756
0.255,0.080,0.797,5.493,-0.122,-15.564
0.262,0.066,0.817,-3.418,-8.728,-16.724
0.273,0.054,0.845,-9.949,-15.320,-15.625
0.278,0.037,0.896,-14.038,-19.958,-12.817
0.265,0.019,0.955,-17.151,-22.461,-9.583
0.270,0.014,0.984,-19.775,-21.240,-5.493
0.286,0.039,1.001,-23.499,-18.799,-1.343
0.290,0.055,1.003,-24.902,-16.357,1.282
0.285,0.049,0.979,-22.278,-12.390,2.563
0.275,0.066,0.949,-18.311,-9.705,4.639
0.259,0.081,0.946,-15.564,-10.559,6.042
0.243,0.080,0.970,-13.428,-13.062,5.371
0.236,0.077,0.989,-11.658,-14.771,3.540
0.234,0.072,1.000,-9.705,-14.587,2.075
0.234,0.064,1.012,-7.629,-12.573,1.343

0.057,-0.554,1.996,-38.330,73.853,-66.772
0.005,-0.375,2.205,-50.537,82.581,-70.496
0.089,-0.123,2.331,-69.946,91.797,-78.613
0.293,0.174,2.349,-85.510,96.130,-93.079
0.584,0.481,2.404,-93.140,88.379,-111.084
0.946,0.809,2.444,-102.966,71.777,-131.836
1.385,1.164,2.285,-117.737,52.612,-154.175
1.738,1.490,2.217,-134.155,21.912,-172.729
2.074,1.853,2.199,-139.648,-12.817,-175.232
2.319,1.987,1.955,-130.066,-37.170,-169.861
2.402,2.049,1.460,-128.906,-52.002,-156.189
2.389,2.027,1.091,-137.695,-76.355,-133.728
2.229,1.874,0.896,-132.935,-106.445,-107.117
2.038,1.707,0.708,-115.051,-126.953,-78.369
1.781,1.535,0.491,-94.116,-136.536,-53.467
1.552,1.336,0.327,-72.205,-140.503,-36.865
1.335,1.177,0.192,-60.913,-142.456,-25.879
1.200,1.052,-0.011,-52.917,-136.414,-16.785
1.128,0.999,-0.199,-42.847,-125.122,-5.920
1.044,0.865,-0.362,-31.555,-115.295,2.380
0.948,0.728,-0.512,-25.085,-105.530,13.794
0.828,0.588,-0.696,-18.494,-92.834,28.015
0.655,0.426,-0.847,-17.334,-83.191,43.518
0.476,0.318,-0.846,-29.541,-78.979,65.552
0.349,0.267,-0.791,-39.612,-70.313,95.886
0.232,0.264,-0.753,-26.245,-58.350,124.329
0.137,0.190,-0.791,-6.470,-44.800,143.677
0.108,0.117,-0.872,17.517,-30.701,158.325
0.085,0.076,-0.869,43.762,-21.545,168.518
0.050,-0.020,-0.852,73.792,-14.648,172.852
-0.005,-0.124,-0.867,109.070,-6.226,172.607
-0.071,-0.197,-0.796,139.709,-1.587,171.692
-0.126,-0.294,-0.659,158.325,-1.221,167.358
-0.150,-0.413,-0.534,172.241,-1.831,159.424
-0.171,-0.530,-0.484,183.777,-3.174,151.672
-0.172,-0.594,-0.302,183.777,-9.277,145.752
-0.193,-0.697,-0.132,186.523,-14.526,138.611
-0.220,-0.812,0.006,185.730,-16.541,130.432
-0.229,-0.938,0.180,178.589,-16.724,124.146
-0.224,-0.971,0.365,172.180,-15.625,121.155
-0.307,-1.069,0.604,167.786,-21.179,112.305
-0.440,-1.149,0.854,157.776,-25.452,103.516
-0.508,-1.122,0.938,148.376,-14.038,97.290
-0.514,-1.085,0.937,140.137,2.380,87.952
-0.443,-0.983,0.889,130.371,13.367,78.369
-0.320,-0.946,0.847,117.432,17.883,69.214
-0.151,-0.851,0.864,101.563,15.747,62.073
-0.033,-0.786,0.888,98.450,8.545,53.772
0.018,-0.762,0.907,101.135,-4.456,44.128
0.026,-0.760,0.962,101.807,-21.423,34.729
-0.012,-0.770,1.039,100.342,-37.720,25.513
-0.106,-0.782,1.134,96.558,-49.500,15.747
-0.217,-0.790,1.167,90.881,-52.734,6.104
-0.324,-0.776,1.152,85.815,-48.218,-2.869
-0.417,-0.751,1.211,67.749,-42.664,-13.367
-0.378,-0.716,1.292,31.311,-38.940,-27.954
-0.260,-0.685,1.382,-2.075,-37.720,-44.128
-0.094,-0.587,1.354,-14.526,-30.334,-56.641
-0.053,-0.628,1.200,4.028,-11.047,-71.106
-0.086,-0.676,1.065,23.010,13.611,-76.538
-0.156,-0.713,1.139,24.292,29.724,-71.960
-0.174,-0.723,1.359,9.338,35.645,-61.584
-0.138,-0.664,1.453,-1.953,48.950,-48.401
-0.113,-0.586,1.375,4.822,68.054,-40.222
-0.121,-0.512,1.328,13.000,75.684,-41.199
-0.113,-0.512,1.321,10.742,72.571,-49.072
-0.082,-0.433,1.440,1.343,65.918,-55.481
-0.052,-0.353,1.471,-2.930,70.068,-64.697
0.007,-0.403,1.279,-3.296,81.665,-79.712
0.091,-0.394,1.052,-16.724,74.951,-88.257
0.135,-0.339,0.955,-40.833,46.082,-92.285
0.135,-0.349,1.025,-70.007,11.658,-96.375
0.153,-0.338,1.157,-93.567,-16.602,-92.468
0.166,-0.235,1.318,-111.206,-34.546,-80.811
0.178,-0.124,1.443,-119.690,-39.185,-69.092
0.186,-0.012,1.491,-117.920,-32.166,-61.218
0.202,0.097,1.469,-112.427,-20.142,-57.617
0.229,0.198,1.432,-107.117,-9.705,-57.678
0.251,0.260,1.390,-101.563,-2.686,-59.875
0.271,0.308,1.359,-96.802,2.625,-62.073
0.287,0.352,1.302,-89.355,8.850,-63.110
0.304,0.380,1.213,-78.491,16.235,-62.622
0.322,0.381,1.118,-65.735,22.583,-60.974
0.328,0.355,1.063,-52.856,25.818,-57.495
0.310,0.321,1.063,-40.649,26.123,-51.575
0.276,0.299,1.094,-30.457,25.146,-43.457
0.243,0.269,1.117,-20.935,25.269,-33.997
0.221,0.235,1.125,-12.817,28.198,-24.597
0.203,0.209,1.116,-7.263,34.180,-14.893
0.192,0.188,1.080,-2.380,41.321,-5.188
0.204,0.198,1.033,1.526,48.401,4.578
0.228,0.202,0.987,5.310,54.443,13.123
0.255,0.200,0.938,12.085,59.570,20.203
0.277,0.229,0.880,21.729,63.660,25.757
0.285,0.251,0.808,32.715,64.758,27.161
0.283,0.262,0.742,42.114,61.157,23.987
0.269,0.229,0.701,48.279,51.941,18.127
0.242,0.180,0.728,49.316,37.781,12.390
0.199,0.116,0.781,45.654,22.278,7.385
0.165,0.032,0.835,36.743,8.301,4.517
0.142,0.006,0.884,25.208,-2.197,5.127
0.118,-0.001,0.910,15.076,-7.141,5.676
0.118,-0.034,0.906,5.188,-9.338,5.127
0.126,-0.051,0.905,-5.005,-10.986,5.798
0.130,-0.037,0.917,-13.916,-12.207,8.240
0.134,-0.041,0.927,-19.653,-12.329,10.254
0.128,-0.031,0.925,-20.996,-11.047,11.902
0.122,-0.032,0.919,-20.813,-9.827,13.123
0.109,-0.027,0.932,-20.081,-10.132,14.160
0.100,-0.029,0.956,-20.203,-10.864,13.611
0.095,-0.033,0.966,-19.592,-10.132,12.512
0.098,-0.020,0.973,-19.043,-9.277,11.475
0.095,-0.011,0.983,-18.494,-8.789,9.399
0.101,-0.015,0.985,-16.907,-7.568,6.531
0.113,-0.021,0.996,-15.015,-5.188,4.883
0.128,-0.023,0.989,-13.184,-1.892,4.700
0.141,-0.019,0.985,-9.644,1.648,5.432
0.136,-0.019,0.999,-6.287,3.418,6.897
0.130,-0.019,1.005,-3.357,4.700,8.606

-0.147,-1.237,1.486,-75.195,83.679,-24.109
-0.013,-1.194,1.707,-93.506,93.567,-36.804
0.172,-1.095,1.938,-117.859,102.966,-51.941
0.340,-0.977,2.122,-134.521,110.168,-67.505
0.460,-0.762,2.219,-145.935,118.713,-79.041
0.576,-0.443,2.241,-159.668,126.892,-85.083
0.649,-0.096,2.189,-171.631,132.568,-92.834
0.708,0.269,2.009,-174.133,135.132,-103.760
0.781,0.565,1.873,-170.044,127.502,-117.004
0.894,0.891,1.826,-170.227,102.905,-129.333
1.091,1.200,1.821,-173.767,69.275,-139.648
1.304,1.449,1.847,-175.598,36.194,-149.292
1.548,1.710,1.682,-175.964,14.099,-155.151
1.870,1.955,1.408,-186.035,-4.150,-157.593
2.141,2.098,1.071,-187.012,-25.940,-153.809
2.349,2.190,0.708,-167.175,-50.964,-137.085
2.349,2.191,0.409,-130.615,-78.186,-113.098
2.237,2.033,0.237,-88.196,-104.248,-91.431
2.040,1.883,0.205,-59.753,-127.502,-65.674
1.830,1.670,0.176,-36.255,-140.747,-43.091
1.609,1.395,0.037,-11.719,-140.198,-25.940
1.385,1.161,-0.119,11.719,-131.165,-3.845
1.170,0.986,-0.257,31.921,-123.047,22.095
0.982,0.896,-0.371,36.804,-118.713,48.950
0.778,0.818,-0.482,29.175,-114.990,74.158
0.669,0.750,-0.616,20.752,-109.985,96.802
0.564,0.648,-0.625,14.038,-108.276,115.051
0.458,0.565,-0.533,7.751,-106.628,130.310
0.347,0.433,-0.625,4.761,-98.694,145.325
0.267,0.383,-0.572,-2.136,-93.750,159.363
0.186,0.300,-0.550,4.761,-85.876,168.579
0.110,0.212,-0.646,16.663,-71.838,175.232
0.035,0.157,-0.748,31.738,-60.791,181.091
-0.042,0.059,-0.777,48.828,-55.725,182.129
-0.101,-0.047,-0.736,67.749,-52.795,177.124
-0.139,-0.165,-0.707,87.280,-48.279,169.189
-0.141,-0.278,-0.618,106.689,-41.138,159.851
-0.139,-0.378,-0.504,122.742,-33.203,149.719
-0.133,-0.531,-0.423,133.667,-25.085,138.306
-0.121,-0.645,-0.300,141.907,-17.029,130.432
-0.127,-0.742,-0.149,148.437,-11.353,123.840
-0.107,-0.844,-0.010,150.024,-7.568,116.577
-0.078,-0.919,0.113,149.414,-1.221,110.107
-0.045,-1.000,0.208,147.827,10.376,105.408
-0.022,-0.983,0.235,149.353,21.729,107.422
-0.065,-0.996,0.293,150.635,22.461,106.995
-0.112,-1.021,0.440,148.499,17.944,104.065
-0.137,-1.102,0.514,149.414,17.456,100.708
-0.228,-1.144,0.660,146.973,12.756,100.220
-0.306,-1.133,0.747,142.944,7.263,99.365
-0.337,-1.109,0.781,133.240,3.906,92.896
-0.370,-1.109,0.832,118.652,1.160,82.642
-0.384,-1.093,0.927,96.802,0.549,72.571
-0.334,-1.077,0.934,71.167,6.042,64.148
-0.250,-0.994,0.929,42.297,18.372,57.800
-0.193,-0.899,0.973,22.461,27.710,52.124
-0.160,-0.824,1.018,15.503,32.898,41.870
-0.112,-0.754,1.031,14.954,36.865,27.954
-0.081,-0.718,1.058,19.043,38.696,10.986
-0.043,-0.696,1.116,25.085,35.461,-6.897
0.006,-0.667,1.237,30.823,29.297,-24.719
0.018,-0.730,1.411,36.133,24.231,-39.368
0.012,-0.681,1.622,32.837,26.672,-46.204
-0.011,-0.659,1.780,22.766,41.321,-53.650
0.005,-0.635,1.801,8.301,64.148,-62.500
0.007,-0.745,1.751,-6.287,83.862,-66.101
0.044,-0.698,1.707,-25.452,98.877,-51.941
0.079,-0.520,1.604,-30.945,115.906,-31.433
0.113,-0.330,1.453,-15.747,127.014,-21.484
0.148,-0.188,1.351,2.502,122.375,-27.222
0.158,-0.105,1.377,16.479,98.450,-44.434
0.183,-0.049,1.565,20.569,70.618,-65.735
0.330,0.118,1.698,15.930,62.012,-87.463
0.466,0.202,1.722,4.700,66.040,-115.295
0.597,0.156,1.523,-21.057,67.566,-140.381
0.721,0.218,1.318,-62.073,46.997,-145.874
0.786,0.357,1.248,-103.210,10.986,-134.888
0.827,0.482,1.219,-129.150,-15.076,-117.981
0.851,0.572,1.127,-133.362,-25.452,-96.069
0.835,0.617,1.036,-121.521,-31.677,-70.435
0.780,0.648,1.076,-103.882,-41.565,-45.044
0.703,0.621,1.148,-83.557,-48.706,-25.085
0.612,0.579,1.214,-65.430,-53.345,-11.780
0.538,0.518,1.251,-54.871,-55.481,-2.686
0.480,0.461,1.268,-51.636,-54.077,2.808
0.414,0.398,1.258,-47.729,-48.035,7.874
0.349,0.351,1.208,-41.443,-36.560,13.306
0.268,0.305,1.136,-34.424,-22.034,16.724
0.211,0.258,1.044,-30.029,-7.874,17.212
0.151,0.200,0.985,-25.208,1.404,17.151
0.099,0.153,0.930,-16.968,9.583,16.785
0.065,0.130,0.900,-10.071,16.541,16.785
0.048,0.120,0.867,-2.014,24.475,16.785
0.050,0.120,0.854,7.080,31.189,15.076
0.063,0.100,0.871,16.052,33.813,11.047
0.092,0.084,0.926,21.973,34.241,6.348
0.126,0.069,0.972,26.672,35.278,2.197
0.159,0.059,0.993,31.250,37.781,-0.793
0.200,0.052,0.983,32.837,40.649,-2.258
0.235,0.027,0.907,34.790,43.579,-3.235
0.252,0.005,0.814,35.217,44.067,-3.174
0.247,-0.002,0.738,31.372,38.818,-2.075
0.226,0.003,0.717,23.437,27.405,-1.221
0.199,-0.009,0.744,15.015,13.306,-1.465
0.184,-0.031,0.793,6.287,0.183,-2.686
0.184,-0.040,0.822,0.244,-9.460,-3.540
0.185,-0.049,0.851,-1.892,-17.944,-3.723
0.184,-0.053,0.903,-4.700,-25.330,-3.784
0.187,-0.055,0.947,-7.568,-30.212,-3.845
0.199,-0.050,0.965,-10.864,-31.677,-3.967
0.212,-0.052,0.981,-15.686,-31.616,-4.028
0.216,-0.054,0.996,-21.240,-31.006,-3.052
0.215,-0.044,1.013,-25.391,-29.175,-0.671
0.209,-0.033,1.028,-27.649,-26.184,2.502
0.201,-0.024,1.017,-27.588,-22.095,5.188
0.187,-0.016,0.978,-24.170,-16.785,7.019
0.154,-0.014,0.951,-18.921,-11.230,7.935
0.129,-0.006,0.959,-15.747,-6.897,8.301
0.119,-0.001,0.989,-13.611,-4.456,7.385

-0.298,-1.104,1.485,-20.691,15.747,-33.875
-0.187,-1.144,1.672,-13.794,26.550,-46.692
-0.024,-1.085,1.877,-16.113,40.405,-55.542
0.080,-1.027,2.012,-11.536,52.185,-59.021
0.101,-0.790,2.160,0.977,59.204,-56.152
0.144,-0.479,2.330,1.282,62.073,-54.626
0.241,-0.188,2.491,-7.263,65.491,-66.101
0.463,0.135,2.608,-19.653,66.833,-84.412
0.775,0.425,2.707,-37.292,55.908,-107.605
1.019,0.690,2.760,-64.453,36.316,-129.517
1.151,0.835,2.748,-91.248,16.296,-143.738
1.303,1.124,2.640,-113.098,-4.211,-140.686
1.452,1.451,2.433,-132.874,-25.269,-132.874
1.585,1.639,1.985,-140.808,-42.786,-125.000
1.655,1.818,1.590,-140.076,-61.401,-110.901
1.634,1.894,1.342,-122.803,-81.726,-90.820
1.569,1.823,1.221,-98.633,-96.558,-72.510
1.439,1.624,1.052,-79.285,-107.361,-58.472
1.312,1.456,0.961,-81.055,-116.089,-44.800
1.224,1.277,0.852,-90.576,-117.432,-31.738
1.100,1.128,0.674,-98.938,-105.713,-17.273
0.942,0.938,0.439,-104.553,-88.318,-3.479
0.800,0.835,0.125,-113.647,-63.293,14.099
0.707,0.812,-0.240,-119.568,-39.917,35.217
0.598,0.800,-0.434,-127.930,-34.058,57.434
0.484,0.804,-0.500,-129.639,-39.001,79.590
0.473,0.837,-0.543,-120.544,-40.649,100.403
0.497,0.781,-0.553,-102.722,-43.274,113.892
0.448,0.660,-0.552,-76.538,-44.128,123.474
0.350,0.600,-0.551,-52.673,-38.696,136.292
0.250,0.528,-0.602,-30.151,-26.733,147.095
0.173,0.414,-0.679,-10.925,-14.709,154.175
0.110,0.289,-0.765,-0.183,-7.629,159.851
0.115,0.232,-0.785,3.113,-6.775,164.368
0.130,0.142,-0.726,14.587,-9.460,163.757
0.147,0.016,-0.698,34.790,-8.606,158.569
0.184,-0.111,-0.761,59.021,-2.991,153.687
0.234,-0.219,-0.762,85.754,-0.610,149.963
0.287,-0.401,-0.667,112.549,-4.333,144.287
0.307,-0.574,-0.506,140.869,-11.414,139.465
0.242,-0.879,-0.266,162.231,-19.531,137.024
0.160,-1.020,-0.004,171.265,-20.569,144.409
0.039,-1.095,0.224,176.453,-18.188,152.344
-0.094,-1.175,0.343,175.903,-15.869,153.687
-0.213,-1.206,0.401,169.006,-11.169,153.320
-0.291,-1.174,0.411,157.715,-0.183,153.687
-0.337,-1.123,0.422,148.010,12.878,150.513
-0.364,-1.059,0.418,136.536,23.621,144.836
-0.361,-0.998,0.423,123.596,29.480,137.268
-0.360,-0.970,0.433,112.305,28.809,125.977
-0.337,-0.941,0.582,88.318,19.592,110.168
-0.287,-0.945,0.798,64.148,7.935,91.003
-0.228,-0.961,1.000,48.279,3.296,71.655
-0.171,-0.960,1.197,33.630,7.019,55.237
-0.098,-0.917,1.354,15.381,19.409,44.189
-0.047,-0.830,1.470,-5.737,37.781,36.316
-0.014,-0.734,1.471,-18.555,59.082,28.870
-0.026,-0.647,1.404,-21.912,78.491,21.179
-0.043,-0.570,1.329,-16.724,92.163,13.306
-0.050,-0.504,1.333,-7.874,95.886,3.540
-0.037,-0.447,1.382,1.343,90.149,-9.399
-0.014,-0.441,1.389,15.198,82.092,-27.588
0.013,-0.455,1.417,27.222,70.679,-46.265
0.038,-0.441,1.533,31.555,54.932,-62.256
0.049,-0.481,1.629,34.241,43.518,-75.500
0.110,-0.385,1.733,31.555,38.696,-79.224
0.130,-0.175,1.663,31.555,43.396,-85.205
0.048,-0.532,1.631,34.241,45.227,-107.178
0.060,-0.538,1.759,15.869,51.636,-92.651
0.100,-0.290,1.708,7.690,82.581,-58.655
0.100,-0.091,1.551,11.353,116.638,-42.603
0.138,-0.029,1.341,13.489,130.798,-46.021
0.141,0.116,1.330,13.550,119.629,-56.824
0.120,0.100,1.255,13.123,111.206,-78.369
0.160,0.127,1.079,8.606,99.243,-100.403
0.200,0.089,0.943,-4.639,65.613,-122.559
0.211,-0.008,1.001,-28.076,11.658,-137.878
0.220,0.007,1.169,-57.129,-40.710,-136.108
0.274,0.062,1.324,-80.322,-71.167,-123.962
0.333,0.098,1.411,-93.323,-75.500,-108.521
0.375,0.168,1.432,-96.375,-62.317,-89.722
0.415,0.277,1.385,-95.093,-42.969,-70.251
0.441,0.359,1.299,-90.088,-25.391,-54.504
0.419,0.450,1.211,-82.397,-15.381,-43.335
0.363,0.496,1.142,-74.524,-12.573,-38.208
0.330,0.506,1.077,-66.467,-12.634,-36.316
0.319,0.493,1.026,-57.922,-14.160,-34.973
0.310,0.489,1.015,-48.767,-14.832,-32.349
0.299,0.476,0.999,-37.170,-12.695,-28.992
0.294,0.440,0.985,-27.466,-10.071,-25.879
0.270,0.406,1.007,-19.531,-8.423,-21.729
0.252,0.349,1.006,-11.658,-4.883,-16.541
0.230,0.298,0.999,-6.287,0.916,-9.888
0.197,0.260,1.009,-0.977,8.728,-2.930
0.155,0.221,1.009,4.272,19.348,1.648
0.109,0.191,0.988,9.155,29.968,4.089
0.079,0.159,0.945,11.475,37.476,3.967
0.058,0.143,0.932,11.292,40.344,2.197
0.060,0.137,0.928,10.864,40.710,-0.305
0.081,0.117,0.894,12.573,41.260,-3.357
0.112,0.097,0.843,13.611,39.001,-5.981
0.136,0.110,0.816,11.169,32.471,-6.897
0.156,0.111,0.799,6.470,23.376,-7.690
0.169,0.114,0.793,0.122,12.939,-8.301
0.188,0.110,0.805,-7.812,1.892,-8.423
0.196,0.077,0.844,-14.404,-8.179,-7.996
0.190,0.049,0.890,-17.822,-14.832,-5.493
0.180,0.046,0.937,-19.775,-17.395,-1.404
0.179,0.051,0.982,-21.606,-16.724,2.502
0.181,0.046,1.010,-23.071,-13.977,4.944
0.180,0.050,1.014,-24.231,-9.705,6.714
0.173,0.059,0.992,-23.437,-5.310,8.118
0.179,0.076,0.974,-23.254,-3.357,8.545
0.187,0.086,0.972,-23.987,-3.723,7.751
0.184,0.077,0.957,-21.484,-4.333,6.348
0.165,0.072,0.937,-16.602,-4.395,5.310
0.146,0.064,0.945,-13.550,-5.066,3.845
0.130,0.050,0.972,-11.169,-6.409,2.136
0.120,0.044,1.001,-9.155,-6.958,0.549

0.268,-0.506,1.912,-70.007,61.340,-7.812
0.308,-0.478,1.932,-75.256,73.669,-15.625
0.339,-0.421,1.975,-84.473,81.787,-22.217
0.396,-0.267,2.059,-101.685,83.679,-25.269
0.462,-0.095,2.140,-122.314,82.886,-28.809
0.519,0.333,2.065,-145.447,82.092,-32.776
0.562,0.788,2.005,-177.856,72.693,-50.598
0.608,1.078,2.008,-204.956,54.871,-85.022
0.721,1.362,1.825,-217.957,42.236,-111.572
0.871,1.651,1.539,-226.624,24.780,-123.535
0.973,1.979,1.272,-226.135,-3.357,-123.596
1.063,2.268,1.036,-213.501,-34.973,-117.310
1.142,2.507,0.846,-193.115,-65.613,-106.812
1.194,2.738,0.799,-163.391,-91.492,-95.093
1.272,2.772,0.606,-128.479,-100.342,-93.140
1.354,2.606,0.329,-92.224,-97.290,-99.854
1.390,2.443,0.195,-40.894,-95.032,-101.318
1.419,2.251,-0.117,-9.033,-88.257,-97.168
1.337,2.044,-0.337,-21.118,-89.966,-91.064
1.171,1.839,-0.507,-26.978,-97.351,-88.806
1.007,1.573,-0.601,-13.794,-101.685,-85.205
0.847,1.282,-0.654,-4.272,-104.309,-74.585
0.724,1.008,-0.785,0.427,-100.098,-52.673
0.623,0.747,-0.975,-8.850,-91.614,-21.851
0.558,0.708,-1.002,-29.419,-86.548,20.142
0.567,0.721,-1.004,-35.767,-81.665,61.829
0.583,0.653,-1.022,-15.991,-71.777,89.905
0.569,0.508,-1.059,18.005,-60.303,106.628
0.554,0.360,-1.104,57.678,-50.598,117.065
0.537,0.188,-1.148,101.685,-42.236,122.620
0.509,0.024,-1.117,146.423,-37.170,124.451
0.459,-0.188,-1.073,187.927,-36.255,123.169
0.365,-0.355,-0.972,220.581,-39.001,120.239
0.228,-0.602,-0.967,246.582,-44.495,112.549
0.158,-0.812,-0.744,235.962,-58.411,103.516
0.030,-1.029,-0.434,215.881,-78.918,98.755
-0.093,-1.238,-0.199,217.346,-88.562,98.511
-0.264,-1.385,0.096,210.632,-92.834,106.201
-0.435,-1.332,0.360,198.181,-87.463,115.906
-0.559,-1.286,0.429,185.303,-69.336,118.469
-0.601,-1.187,0.381,169.189,-46.875,121.948
-0.607,-0.974,0.321,153.931,-29.907,123.108
-0.529,-0.847,0.285,141.418,-24.719,110.291
-0.465,-0.801,0.291,133.972,-28.442,90.881
-0.389,-0.837,0.358,129.700,-38.696,70.068
-0.330,-0.903,0.500,119.324,-52.856,52.429
-0.325,-0.972,0.709,109.680,-62.256,41.077
-0.321,-0.996,0.930,97.656,-60.791,36.926
-0.328,-0.971,1.183,78.369,-50.659,37.292
-0.351,-0.956,1.369,60.120,-31.555,37.170
-0.384,-0.928,1.437,46.936,-3.113,36.865
-0.376,-0.841,1.393,32.471,30.579,36.499
-0.272,-0.703,1.245,21.362,63.293,33.264
-0.123,-0.609,1.057,23.010,83.252,24.902
-0.033,-0.519,1.021,28.381,83.069,12.817
-0.001,-0.462,1.117,34.363,68.909,-2.258
0.005,-0.473,1.272,42.664,52.979,-21.545
0.003,-0.557,1.448,50.232,40.588,-41.504
-0.018,-0.651,1.608,52.490,35.583,-54.993
-0.022,-0.676,1.685,47.485,39.917,-60.242
-0.050,-0.664,1.704,40.894,47.424,-61.462
-0.067,-0.617,1.701,32.043,56.213,-60.181
-0.084,-0.564,1.688,20.386,66.956,-57.129
-0.036,-0.521,1.548,9.338,79.224,-55.359
0.015,-0.425,1.470,1.282,82.214,-53.589
0.064,-0.334,1.455,-3.845,80.383,-53.711
0.137,-0.217,1.430,-5.859,82.947,-55.298
0.181,-0.131,1.371,-3.052,80.933,-60.974
0.229,-0.014,1.327,-6.836,72.205,-69.031
0.263,0.068,1.232,-18.066,57.800,-79.285
0.312,0.091,1.170,-39.246,35.767,-88.257
0.390,0.116,1.213,-68.604,8.667,-87.708
0.471,0.159,1.309,-91.675,-14.648,-78.796
0.516,0.203,1.385,-105.286,-27.771,-64.941
0.531,0.255,1.373,-108.521,-29.175,-47.241
0.511,0.303,1.295,-104.736,-24.048,-30.273
0.483,0.358,1.233,-100.403,-19.958,-14.893
0.448,0.422,1.205,-97.900,-20.996,-2.380
0.422,0.482,1.171,-93.811,-23.621,5.615
0.414,0.529,1.132,-87.952,-24.353,8.423
0.391,0.552,1.090,-78.796,-22.766,7.385
0.359,0.593,1.055,-69.519,-19.775,4.944
0.341,0.627,1.009,-57.373,-15.991,1.160
0.332,0.621,0.969,-42.480,-12.085,-4.517
0.320,0.579,0.914,-26.794,-8.362,-10.742
0.295,0.522,0.870,-12.756,-5.188,-14.160
0.252,0.466,0.860,-1.343,-2.808,-14.587
0.223,0.390,0.869,9.583,1.526,-12.695
0.199,0.305,0.885,18.677,7.874,-9.094
0.170,0.260,0.895,23.682,14.221,-3.723
0.156,0.227,0.901,25.024,18.738,0.122
0.150,0.195,0.907,24.109,21.057,2.441
0.144,0.165,0.918,22.034,21.423,3.540
0.147,0.151,0.918,19.531,21.240,4.272
0.160,0.135,0.884,19.287,20.874,4.272
0.159,0.129,0.867,20.142,18.677,3.967
0.161,0.118,0.866,20.508,13.123,3.662
0.159,0.106,0.876,18.311,5.188,2.502
0.151,0.092,0.877,14.160,-1.892,0.854
0.148,0.069,0.844,10.620,-5.798,-0.977
0.144,0.060,0.869,5.005,-10.071,-1.526
0.133,0.052,0.948,-2.075,-15.991,-1.526
0.138,0.040,0.991,-5.737,-19.287,-1.648
0.156,0.027,1.004,-7.751,-18.616,-1.648
0.161,0.021,1.007,-8.850,-15.747,-0.977
0.161,0.029,1.004,-9.460,-11.536,0.488
0.162,0.043,0.989,-10.193,-6.836,1.648
0.166,0.045,0.952,-10.315,-3.296,2.380
0.163,0.060,0.923,-9.460,-0.610,3.174
0.156,0.077,0.931,-8.972,0.366,3.723
0.159,0.078,0.947,-8.118,-0.488,3.235
0.166,0.070,0.949,-5.371,-0.916,2.991
0.164,0.064,0.954,-1.404,-0.793,3.235
0.161,0.049,0.981,1.404,-1.526,3.723
0.157,0.044,1.009,3.418,-2.869,4.700
0.148,0.033,1.025,4.639,-3.235,5.493
0.148,0.035,1.025,5.127,-3.235,6.287
0.142,0.036,1.035,3.784,-3.174,6.653
0.137,0.047,1.041,1.160,-2.319,6.653

-0.167,-0.949,1.922,-2.747,69.214,51.208
-0.141,-0.941,2.048,-20.020,86.121,44.800
-0.113,-0.728,2.047,-39.001,100.708,31.250
-0.140,-0.684,2.110,-61.340,105.774,0.610
-0.119,-0.589,2.205,-85.266,104.614,-30.457
-0.066,-0.425,2.292,-113.220,101.074,-51.819
0.012,-0.156,2.343,-141.113,96.008,-67.078
0.153,0.117,2.454,-166.016,88.806,-78.003
0.343,0.377,2.492,-192.566,80.383,-85.632
0.559,0.722,2.335,-221.497,71.106,-87.830
0.772,1.097,2.252,-240.234,53.223,-86.731
0.962,1.486,2.067,-251.587,34.302,-86.548
1.184,1.774,1.726,-256.836,10.864,-83.862
1.413,2.078,1.383,-245.667,-21.973,-74.280
1.623,2.243,1.168,-215.210,-55.237,-66.589
1.839,2.256,0.963,-176.147,-86.060,-59.937
1.944,2.201,0.895,-141.541,-113.831,-48.767
1.993,1.960,0.648,-118.225,-127.380,-31.738
1.946,1.669,0.164,-108.948,-125.854,-6.653
1.774,1.521,-0.140,-101.440,-124.573,34.607
1.536,1.468,-0.307,-93.262,-123.718,85.022
1.301,1.369,-0.481,-82.886,-115.601,126.160
1.057,1.099,-0.757,-60.913,-106.323,155.640
0.894,0.935,-0.818,-38.879,-100.098,177.917
0.728,0.723,-0.938,-10.620,-92.224,196.228
0.607,0.599,-0.933,7.996,-91.309,211.365
0.503,0.456,-0.947,24.658,-89.355,222.107
0.419,0.300,-0.875,41.931,-83.130,229.126
0.350,0.143,-0.850,59.814,-69.580,232.971
0.288,0.006,-0.767,70.129,-56.274,238.342
0.238,-0.110,-0.760,80.872,-37.903,242.676
0.213,-0.209,-0.801,87.524,-18.860,245.483
0.191,-0.281,-0.743,96.191,-4.944,246.338
0.180,-0.380,-0.658,107.971,6.897,244.202
0.165,-0.472,-0.583,119.629,16.907,240.784
0.152,-0.559,-0.486,132.019,22.095,235.352
0.140,-0.655,-0.390,145.020,24.292,225.952
0.122,-0.739,-0.267,157.043,25.452,213.501
0.098,-0.847,-0.131,165.283,26.550,198.425
0.077,-0.880,-0.011,167.969,31.189,184.998
0.079,-0.974,0.159,167.786,28.137,168.396
0.071,-1.065,0.352,159.302,26.855,153.198
0.050,-1.096,0.537,140.198,33.997,144.348
0.046,-1.073,0.594,122.253,47.974,139.160
0.047,-1.083,0.622,108.093,63.049,131.836
0.011,-1.098,0.671,96.741,71.106,125.671
-0.043,-1.069,0.703,87.891,73.730,119.751
-0.104,-1.003,0.734,85.510,73.059,109.253
-0.175,-1.007,0.661,93.567,75.745,90.271
-0.214,-0.998,0.636,100.708,74.646,69.275
-0.213,-1.024,0.679,105.835,68.726,47.485
-0.177,-1.086,0.842,103.577,63.049,26.123
-0.129,-1.161,1.052,80.994,57.617,13.550
-0.038,-0.993,1.382,35.828,55.359,17.761
-0.051,-1.155,1.319,5.493,67.078,21.362
-0.049,-0.967,1.468,-30.823,77.454,23.437
-0.045,-0.698,1.528,-38.635,94.910,13.855
-0.039,-0.649,1.385,-39.978,114.868,-10.315
-0.097,-0.612,1.229,-40.955,119.873,-30.029
-0.111,-0.522,1.153,-35.278,115.295,-51.208
-0.112,-0.509,1.154,-22.522,103.577,-73.975
-0.092,-0.558,1.182,-11.108,88.379,-95.276
-0.035,-0.338,1.438,-4.395,70.862,-111.206
0.069,-0.414,1.425,4.700,63.782,-133.301
0.195,-0.227,1.563,0.793,54.199,-142.822
0.263,-0.272,1.558,1.465,50.781,-149.719
0.339,0.013,1.670,-6.409,47.302,-143.921
0.353,-0.077,1.610,-11.414,56.152,-148.010
0.467,-0.065,1.592,-20.325,61.279,-146.484
0.515,0.116,1.558,-28.015,57.312,-126.709
0.494,0.222,1.506,-32.471,55.115,-111.267
0.433,0.276,1.443,-35.583,54.443,-102.234
0.423,0.321,1.341,-37.598,50.354,-96.619
0.351,0.348,1.443,-33.997,33.630,-91.125
0.254,0.331,1.388,-35.217,29.602,-88.623
0.237,0.402,1.252,-42.053,36.560,-88.745
0.252,0.419,1.139,-44.434,32.837,-93.933
0.297,0.383,1.121,-40.527,10.071,-102.905
0.320,0.356,1.150,-35.217,-14.282,-104.858
0.330,0.337,1.128,-33.264,-27.405,-98.511
0.332,0.278,1.018,-35.034,-31.555,-85.815
0.346,0.304,0.974,-43.030,-37.231,-67.566
0.321,0.353,1.053,-45.654,-45.227,-46.509
0.283,0.422,1.116,-45.227,-44.250,-28.442
0.245,0.430,1.106,-44.128,-34.485,-17.761
0.193,0.369,1.042,-45.166,-23.804,-11.536
0.143,0.371,1.021,-48.096,-15.869,-5.920
0.119,0.368,0.970,-47.791,-7.996,-2.502
0.120,0.350,0.889,-43.152,-1.770,-1.404
0.118,0.353,0.837,-36.133,0.061,-0.122
0.130,0.358,0.814,-27.954,-2.014,0.549
0.157,0.356,0.878,-20.386,-7.812,1.343
0.163,0.314,0.919,-13.062,-11.963,1.709
0.176,0.287,0.961,-8.484,-12.756,2.991
0.182,0.253,1.004,-6.226,-13.550,4.883
0.186,0.222,1.034,-6.104,-12.329,7.690
0.163,0.196,1.018,-7.568,-7.874,10.803
0.143,0.168,0.970,-9.888,-2.930,12.268
0.129,0.163,0.933,-11.108,-0.183,13.184
0.115,0.156,0.921,-9.949,1.160,13.000
0.109,0.152,0.908,-6.714,1.770,11.719
0.105,0.140,0.911,-2.686,1.160,9.705
0.107,0.125,0.930,0.671,-0.610,7.874
0.112,0.134,0.941,2.930,-1.770,6.836
0.118,0.133,0.932,4.639,-1.892,4.822
0.150,0.123,0.935,6.836,-3.723,2.747
0.173,0.125,0.960,9.033,-7.935,2.747
0.161,0.127,0.974,10.437,-9.644,4.089
0.162,0.093,0.981,11.108,-8.118,4.333
0.146,0.066,0.998,8.972,-6.165,5.371
0.118,0.087,1.028,7.019,-2.869,6.348
0.091,0.077,1.018,4.761,3.540,3.601
0.235,0.015,0.955,1.526,8.545,0.305
0.238,0.107,0.936,4.150,8.728,10.559
0.098,0.139,0.912,12.451,7.324,24.658
0.039,-0.003,0.897,18.066,4.883,21.423
0.068,0.004,0.922,17.700,5.798,19.287
0.087,0.035,0.956,16.846,6.470,20.325
0.087,0.042,0.976,16.541,7.690,19.165

0.163,-0.656,1.789,0.610,33.875,28.259
0.125,-0.602,1.918,-8.667,33.142,23.254
0.085,-0.555,2.057,-18.921,29.907,16.052
0.082,-0.508,2.244,-32.776,24.902,7.019
0.084,-0.423,2.451,-54.199,21.240,-1.831
0.090,-0.260,2.510,-83.191,23.804,-4.822
0.114,-0.081,2.479,-113.525,23.743,-7.080
0.128,0.148,2.419,-142.334,17.700,-10.437
0.171,0.409,2.372,-166.443,7.629,-17.517
0.211,0.702,2.233,-182.373,-4.028,-18.372
0.236,1.016,1.991,-189.636,-21.729,-19.165
0.298,1.348,1.630,-187.622,-42.969,-24.109
0.362,1.712,1.332,-173.767,-65.979,-31.616
0.496,2.002,1.124,-149.658,-90.515,-40.710
0.680,2.195,0.965,-123.413,-112.610,-44.189
0.881,2.299,0.745,-104.187,-125.732,-37.781
1.006,2.400,0.521,-87.891,-127.441,-15.808
1.050,2.503,0.295,-74.951,-123.962,14.587
1.030,2.429,-0.068,-62.988,-110.901,40.161
0.897,2.394,-0.344,-39.429,-94.360,69.458
0.683,2.173,-0.521,-3.601,-73.730,83.923
0.594,1.780,-0.575,35.278,-55.725,78.857
0.503,1.448,-0.454,68.909,-42.358,74.402
0.351,1.034,-0.486,89.722,-26.123,72.998
0.263,0.798,-0.461,95.398,-18.005,85.815
0.206,0.565,-0.398,97.900,-17.761,106.567
0.182,0.239,-0.381,92.285,-11.963,120.544
0.058,0.094,-0.249,69.946,-2.869,135.254
0.072,0.084,-0.452,44.922,10.986,147.522
0.155,0.102,-0.608,23.132,17.517,144.836
0.284,0.022,-0.743,23.010,17.456,138.428
0.336,-0.087,-0.796,37.659,18.311,139.709
0.339,-0.202,-0.751,57.617,22.705,147.095
0.260,-0.338,-0.618,74.768,28.748,154.907
0.143,-0.428,-0.513,85.754,40.771,158.569
0.046,-0.505,-0.448,91.553,52.856,154.602
-0.026,-0.603,-0.362,96.802,61.157,143.250
-0.055,-0.707,-0.278,101.501,68.848,127.380
0.075,-0.726,-0.127,104.797,69.702,111.267
0.031,-0.935,0.057,109.314,72.388,92.957
0.089,-1.053,0.285,102.966,80.139,80.811
0.185,-1.111,0.480,87.402,85.144,77.148
0.231,-1.130,0.595,72.388,92.712,77.271
0.189,-1.152,0.663,61.523,101.074,77.209
0.137,-1.167,0.734,52.368,103.271,76.111
0.078,-1.136,0.781,44.678,100.708,72.144
0.043,-1.068,0.774,37.781,98.267,63.293
0.073,-1.010,0.786,33.081,95.642,47.791
0.089,-0.987,0.798,31.860,90.759,30.029
0.125,-0.956,0.870,32.043,88.074,12.207
0.237,-0.946,1.057,28.503,88.379,-4.517
0.366,-0.936,1.259,15.869,89.783,-17.212
0.446,-0.879,1.358,-3.113,94.421,-23.560
0.494,-0.779,1.397,-23.560,100.281,-25.940
0.510,-0.688,1.391,-44.006,102.478,-28.015
0.508,-0.555,1.345,-60.303,100.952,-30.762
0.493,-0.423,1.250,-69.336,96.924,-37.170
0.491,-0.255,1.170,-70.190,91.125,-46.631
0.455,-0.177,1.053,-63.049,82.825,-59.265
0.473,-0.088,1.048,-49.866,75.439,-74.646
0.444,-0.152,1.266,-29.419,57.190,-91.248
0.502,-0.085,1.377,-20.752,55.176,-100.220
0.589,-0.085,1.523,-21.973,51.331,-108.093
0.645,-0.114,1.676,-31.067,42.725,-109.375
0.640,-0.084,1.653,-52.124,45.776,-100.281
0.659,0.024,1.468,-76.660,55.725,-90.942
0.597,0.109,1.322,-89.111,53.650,-82.397
0.573,0.190,1.176,-91.736,51.575,-78.979
0.495,0.262,1.223,-82.703,41.077,-78.003
0.506,0.317,1.213,-76.965,30.640,-84.595
0.557,0.398,1.190,-72.876,21.057,-94.604
0.627,0.480,1.234,-67.505,12.329,-101.807
0.728,0.540,1.257,-66.772,7.446,-103.943
0.833,0.609,1.249,-69.580,4.028,-98.694
0.897,0.670,1.196,-74.036,2.258,-85.510
0.914,0.709,1.115,-78.247,1.526,-68.787
0.889,0.730,1.020,-78.857,0.000,-51.392
0.830,0.750,0.959,-74.829,-3.601,-35.217
0.740,0.667,0.845,-70.557,-10.254,-22.400
0.728,0.846,0.942,-73.669,-22.461,-9.277
0.596,0.729,0.819,-59.326,-31.494,-2.991
0.571,0.759,0.800,-50.293,-33.325,-3.540
0.543,0.669,0.688,-40.039,-41.931,-4.028
0.506,0.722,0.913,-31.433,-51.392,-2.808
0.476,0.583,0.823,-11.414,-42.603,-5.188
0.448,0.477,0.742,-6.897,-35.156,-3.052
0.415,0.530,0.847,-7.141,-37.537,3.113
0.377,0.452,0.836,-0.305,-35.767,4.883
0.345,0.397,0.780,3.113,-28.931,5.798
0.305,0.372,0.762,5.554,-25.085,7.568
0.274,0.345,0.764,7.141,-22.583,7.751
0.264,0.314,0.770,8.484,-20.325,6.714
0.260,0.298,0.751,8.789,-17.700,5.188
0.264,0.283,0.733,9.583,-15.869,3.906
0.275,0.266,0.741,11.169,-15.564,1.953
0.290,0.238,0.771,12.634,-16.296,0.061
0.302,0.213,0.817,13.062,-16.663,-1.038
0.305,0.180,0.861,12.146,-16.418,-0.977
0.306,0.169,0.882,9.277,-15.259,-0.305
0.319,0.166,0.884,5.615,-13.855,0.854
0.322,0.162,0.888,2.747,-12.878,2.197
0.316,0.163,0.875,0.610,-12.085,3.662
0.315,0.171,0.859,-0.977,-11.230,4.211
0.314,0.176,0.871,-0.977,-10.986,4.150
0.317,0.181,0.858,-0.549,-11.475,3.845
0.320,0.189,0.859,0.488,-12.939,3.784
0.324,0.199,0.889,1.465,-14.282,3.723
0.334,0.214,0.893,0.671,-13.855,3.784
0.347,0.234,0.872,-0.977,-12.451,4.517
0.341,0.241,0.847,0.244,-11.169,5.676
0.328,0.251,0.839,2.930,-10.986,6.653
0.307,0.245,0.848,6.165,-11.780,6.775
0.248,0.225,0.864,8.667,-11.475,6.531
0.286,0.206,0.854,8.911,-11.475,8.057
0.294,0.220,0.880,9.033,-12.634,9.277
0.288,0.209,0.907,9.460,-13.123,8.362
0.285,0.193,0.919,8.606,-13.672,7.690
0.281,0.182,0.911,6.653,-13.672,8.606
0.277,0.194,0.908,4.639,-13.550,10.559

0.216,-0.911,1.500,14.282,47.729,-43.945
0.269,-0.903,1.547,0.183,61.218,-47.363
0.305,-0.891,1.703,-11.414,65.979,-48.218
0.292,-0.797,1.873,-24.719,69.336,-47.852
0.238,-0.668,2.064,-43.762,73.547,-50.781
0.229,-0.483,2.279,-69.092,77.759,-57.129
0.267,-0.258,2.457,-99.792,79.895,-68.298
0.408,-0.007,2.601,-132.629,77.454,-81.543
0.597,0.273,2.699,-166.931,67.505,-93.140
0.818,0.628,2.644,-202.820,56.091,-97.656
0.997,1.024,2.672,-234.619,39.734,-95.154
1.179,1.351,2.447,-264.709,23.071,-90.271
1.317,1.631,1.891,-285.767,5.432,-76.721
1.369,1.936,1.237,-279.419,-18.127,-57.495
1.306,2.257,0.764,-238.647,-45.959,-40.405
1.249,2.302,0.558,-167.480,-76.782,-34.485
1.234,2.134,0.520,-100.464,-107.849,-36.499
1.164,1.990,0.574,-59.143,-131.714,-32.104
1.037,1.693,0.445,-34.058,-132.874,-23.621
0.902,1.409,0.202,-24.719,-116.699,-11.047
0.738,1.284,-0.088,-18.494,-97.473,8.606
0.601,1.246,-0.286,-24.475,-83.801,24.963
0.480,1.104,-0.514,-26.917,-75.195,32.043
0.356,0.937,-0.745,-37.415,-72.205,35.034
0.319,0.962,-0.643,-62.988,-85.876,44.678
0.339,0.835,-0.536,-58.777,-94.971,53.284
0.324,0.681,-0.557,-33.447,-85.205,66.650
0.247,0.610,-0.606,-2.991,-67.566,85.327
0.174,0.537,-0.599,21.240,-53.345,100.159
0.093,0.418,-0.564,43.030,-40.100,108.887
0.033,0.297,-0.529,59.814,-26.917,115.051
-0.005,0.197,-0.476,74.158,-13.916,118.469
-0.022,0.135,-0.449,91.553,-1.770,119.385
0.008,0.093,-0.501,111.633,10.803,118.164
0.037,0.024,-0.573,129.639,18.860,115.234
0.033,-0.076,-0.575,140.320,16.724,112.122
0.107,-0.155,-0.372,136.230,5.554,110.168
0.154,-0.287,-0.266,140.076,2.197,107.605
0.125,-0.424,-0.251,154.175,7.019,107.605
0.064,-0.490,-0.151,162.964,7.812,109.192
0.004,-0.525,-0.016,163.635,10.193,105.225
-0.053,-0.579,0.002,160.400,19.287,93.628
-0.041,-0.694,-0.016,157.166,31.921,78.003
-0.022,-0.748,0.057,156.128,39.185,69.458
0.007,-0.840,0.156,158.264,39.124,60.669
0.018,-0.940,0.262,159.424,38.269,52.429
0.001,-1.042,0.318,160.034,36.743,46.509
-0.037,-1.094,0.353,150.635,31.006,41.199
-0.073,-1.105,0.502,132.019,13.550,33.875
-0.090,-1.130,0.701,118.591,-3.052,23.193
-0.101,-1.198,0.914,104.248,-7.690,12.695
-0.111,-1.209,1.049,88.379,3.052,8.667
-0.116,-1.156,1.095,72.937,26.245,10.376
-0.098,-1.097,1.118,53.711,51.941,11.719
-0.062,-1.024,1.109,33.081,70.862,12.573
-0.007,-0.944,1.071,15.015,80.627,11.780
0.049,-0.861,1.143,-1.587,82.764,5.676
0.082,-0.788,1.292,-19.043,83.435,-3.662
0.094,-0.732,1.409,-35.217,91.370,-19.287
0.083,-0.704,1.494,-52.063,107.849,-37.537
0.146,-0.557,1.506,-68.604,126.221,-46.204
0.272,-0.277,1.378,-76.355,140.137,-53.711
0.361,-0.165,1.303,-76.477,137.146,-77.209
0.481,-0.159,1.322,-74.463,121.521,-101.563
0.578,-0.113,1.371,-71.045,104.858,-116.455
0.690,-0.033,1.344,-65.735,89.539,-125.244
0.715,0.015,1.488,-56.946,66.101,-128.845
0.709,0.015,1.520,-54.810,54.932,-130.432
0.726,0.016,1.523,-59.509,53.833,-129.578
0.759,0.046,1.555,-69.702,50.293,-127.075
0.794,0.107,1.513,-85.999,47.913,-122.070
0.817,0.199,1.378,-100.891,49.316,-114.136
0.836,0.306,1.236,-110.657,49.683,-104.553
0.809,0.380,1.099,-115.173,45.654,-94.360
0.873,0.442,1.004,-116.272,36.865,-80.444
0.899,0.563,1.048,-107.849,22.522,-65.430
0.833,0.581,1.003,-89.417,12.024,-56.091
0.768,0.577,1.026,-75.256,2.258,-49.622
0.697,0.512,1.082,-61.646,-5.798,-42.725
0.661,0.503,1.183,-56.274,-11.169,-30.823
0.628,0.491,1.179,-49.316,-9.094,-17.761
0.580,0.471,1.120,-45.044,-3.784,-9.094
0.532,0.465,1.073,-40.466,0.427,-4.089
0.498,0.453,1.030,-33.142,1.892,-2.258
0.485,0.419,1.011,-25.024,0.244,-2.441
0.483,0.393,0.974,-16.113,-1.892,-2.563
0.479,0.374,0.922,-8.972,-2.747,-3.662
0.473,0.376,0.886,-2.441,-4.639,-3.662
0.466,0.346,0.854,3.601,-8.179,-3.479
0.478,0.333,0.821,5.493,-11.841,-2.319
0.465,0.331,0.851,5.249,-15.564,0.977
0.466,0.301,0.844,5.615,-14.587,3.845
0.458,0.281,0.849,1.709,-12.329,7.690
0.437,0.270,0.810,-1.160,-9.583,12.512
0.413,0.249,0.788,-2.136,-7.751,15.869
0.391,0.232,0.821,-1.282,-8.911,17.090
0.366,0.211,0.827,0.244,-9.338,16.785
0.351,0.208,0.805,1.831,-8.179,15.686
0.350,0.195,0.784,1.404,-9.033,13.245
0.364,0.190,0.761,0.977,-11.047,10.620
0.368,0.194,0.776,-0.366,-13.062,9.216
0.376,0.193,0.786,0.000,-13.123,8.606
0.384,0.188,0.789,-0.183,-12.634,9.277
0.399,0.181,0.795,0.061,-10.864,10.803
0.404,0.182,0.797,0.000,-8.362,13.306
0.324,0.215,0.805,0.916,-6.958,13.794
0.374,0.155,0.826,-1.099,-7.568,7.751
0.384,0.140,0.855,-1.160,-8.240,8.362
0.338,0.135,0.880,-0.916,-4.578,11.230
0.305,0.128,0.838,-0.854,-0.183,12.817
0.296,0.149,0.812,-2.747,1.831,12.329
0.299,0.152,0.821,-3.113,1.038,9.521
0.314,0.155,0.841,-2.075,0.244,6.958
0.321,0.151,0.860,-1.892,-0.244,5.127
0.325,0.150,0.860,-1.892,0.244,4.211
0.339,0.151,0.864,-1.526,1.221,4.089
0.350,0.154,0.874,-2.380,1.831,4.639
0.351,0.158,0.880,-3.662,1.709,5.676
0.346,0.161,0.888,-3.235,1.099,6.592

0.151,-0.700,1.874,-82.886,-2.258,-80.017
0.222,-0.625,2.047,-73.853,5.920,-85.938
0.307,-0.479,2.190,-64.392,19.348,-86.182
0.437,-0.285,2.260,-59.082,33.020,-83.984
0.572,-0.082,2.387,-64.575,43.518,-82.886
0.729,0.160,2.572,-80.078,50.354,-84.473
0.928,0.441,2.650,-98.877,58.105,-88.135
1.153,0.801,2.536,-113.770,67.444,-92.346
1.429,1.185,2.301,-122.192,70.557,-98.267
1.675,1.456,1.958,-121.399,65.247,-108.704
1.912,1.636,1.499,-118.103,55.847,-119.507
2.132,1.769,1.157,-118.225,31.860,-125.244
2.297,1.854,0.981,-116.699,-9.705,-123.352
2.354,1.893,0.868,-111.877,-57.007,-114.136
2.310,1.717,0.765,-106.140,-95.947,-105.835
2.191,1.531,0.623,-100.403,-118.225,-95.947
1.993,1.293,0.427,-86.548,-125.916,-82.031
1.815,1.054,0.236,-72.754,-126.221,-62.561
1.639,0.940,0.076,-63.721,-122.803,-35.950
1.488,0.906,-0.060,-44.189,-116.272,-9.155
1.309,0.818,-0.183,-17.212,-108.582,8.179
1.141,0.738,-0.341,14.465,-97.229,21.057
1.003,0.698,-0.507,47.180,-85.083,30.945
0.807,0.395,-0.978,59.937,-78.918,41.565
0.677,0.313,-0.870,-5.249,-89.661,66.040
0.577,0.322,-0.683,-36.194,-98.267,105.225
0.459,0.323,-0.599,-23.254,-84.167,137.024
0.329,0.276,-0.629,-10.498,-67.017,158.081
0.223,0.229,-0.693,1.526,-52.795,168.701
0.126,0.171,-0.711,15.930,-43.579,175.964
0.046,0.133,-0.668,32.471,-37.537,182.007
-0.037,0.100,-0.613,51.270,-33.997,183.350
-0.109,0.049,-0.602,68.604,-32.959,177.002
-0.171,-0.006,-0.562,83.984,-35.400,164.917
-0.198,-0.095,-0.451,95.215,-39.978,149.902
-0.217,-0.197,-0.276,103.088,-44.556,132.812
-0.191,-0.330,-0.160,110.352,-43.213,114.929
-0.161,-0.422,-0.044,115.479,-41.199,99.670
-0.207,-0.547,0.100,121.704,-42.786,85.205
-0.288,-0.704,0.239,127.502,-43.030,73.547
-0.352,-0.798,0.336,129.578,-38.025,68.604
-0.394,-0.875,0.416,129.700,-28.992,69.458
-0.405,-0.920,0.444,124.573,-18.127,75.073
-0.413,-0.877,0.457,122.437,-11.108,84.290
-0.435,-0.734,0.501,118.713,-8.667,93.384
-0.415,-0.680,0.481,114.868,-4.578,89.417
-0.351,-0.608,0.443,110.291,-1.038,82.092
-0.253,-0.601,0.430,107.300,0.671,73.792
-0.180,-0.642,0.514,103.516,-2.625,65.125
-0.159,-0.667,0.631,97.412,-8.606,57.556
-0.147,-0.689,0.730,91.370,-12.207,52.002
-0.151,-0.736,0.818,91.064,-10.803,48.706
-0.229,-0.783,0.936,91.736,-6.042,48.218
-0.354,-0.784,1.071,87.463,3.357,50.110
-0.428,-0.748,1.098,76.233,22.461,51.575
-0.410,-0.655,1.009,64.087,46.021,51.636
-0.327,-0.539,0.880,51.392,62.561,47.180
-0.234,-0.477,0.802,39.551,65.796,34.668
-0.157,-0.471,0.906,23.437,53.955,14.709
-0.118,-0.474,1.101,13.977,35.339,-7.751
-0.074,-0.512,1.276,17.395,22.156,-29.785
-0.053,-0.571,1.456,21.423,16.174,-45.166
0.059,-0.475,1.464,19.653,21.118,-56.274
0.062,-0.665,1.531,20.264,19.287,-73.608
0.064,-0.760,1.822,4.700,21.240,-73.853
0.080,-0.744,1.875,2.197,51.270,-59.570
0.087,-0.661,1.691,14.160,87.341,-48.035
0.071,-0.566,1.527,23.743,104.797,-45.227
0.092,-0.485,1.335,28.503,107.178,-47.424
0.107,-0.305,1.285,27.649,92.834,-52.429
0.081,-0.224,1.304,18.005,73.425,-69.214
0.132,-0.284,1.127,7.996,62.927,-92.041
0.234,-0.343,0.996,-11.292,41.321,-107.178
0.331,-0.323,1.100,-42.725,6.165,-111.023
0.389,-0.321,1.276,-68.787,-21.667,-108.276
0.406,-0.329,1.393,-85.144,-30.579,-98.572
0.445,-0.219,1.432,-100.952,-23.865,-78.430
0.491,-0.083,1.362,-110.718,-9.033,-56.519
0.531,0.082,1.275,-115.479,4.456,-37.598
0.560,0.218,1.195,-113.953,14.099,-24.902
0.596,0.341,1.132,-109.131,19.287,-19.531
0.629,0.417,1.069,-98.389,20.569,-19.897
0.616,0.448,1.037,-79.163,19.348,-23.315
0.589,0.489,1.056,-59.814,14.709,-26.306
0.566,0.463,1.105,-42.603,7.690,-31.372
0.517,0.378,1.178,-27.527,2.136,-36.255
0.455,0.334,1.222,-14.526,2.563,-35.889
0.421,0.311,1.218,-5.615,9.766,-31.799
0.414,0.294,1.186,-1.831,19.775,-27.100
0.415,0.281,1.122,0.916,28.381,-21.851
0.406,0.272,1.058,7.690,36.133,-16.541
0.389,0.255,1.019,16.479,42.236,-11.780
0.379,0.224,0.990,24.597,45.227,-7.568
0.377,0.200,0.947,31.250,46.326,-3.723
0.374,0.197,0.896,36.926,45.776,-0.549
0.357,0.203,0.862,40.588,42.786,1.831
0.363,0.212,0.842,40.344,36.682,1.892
0.368,0.177,0.850,36.621,28.137,-0.305
0.366,0.131,0.867,31.677,20.874,-2.441
0.373,0.102,0.876,26.733,15.808,-2.075
0.379,0.036,0.881,21.057,11.475,-0.549
0.369,0.011,0.913,13.306,6.775,4.089
0.338,-0.009,0.924,8.545,4.517,8.972
0.299,-0.043,0.911,7.080,3.967,12.390
0.263,-0.056,0.925,3.113,1.404,15.076
0.243,-0.050,0.950,-2.686,-2.747,15.869
0.234,-0.055,0.961,-5.493,-6.226,13.489
0.225,-0.061,0.961,-5.615,-8.667,10.010
0.221,-0.064,0.982,-6.409,-10.254,6.775
0.228,-0.075,1.004,-9.338,-10.010,3.357
0.251,-0.087,1.001,-10.437,-6.958,1.404
0.270,-0.080,1.002,-9.094,-3.296,1.953
0.269,-0.081,1.017,-8.301,0.183,2.747
0.277,-0.088,1.041,-10.193,3.296,3.784
0.289,-0.103,1.055,-11.963,6.470,5.432
0.306,-0.101,1.055,-14.221,10.803,8.179
0.311,-0.098,1.016,-13.245,14.832,11.353
0.303,-0.093,0.971,-11.536,16.357,14.282
0.286,-0.088,0.936,-11.230,15.259,15.930

0.033,-0.876,1.963,-80.444,63.232,-21.790
0.115,-0.825,2.057,-102.600,79.041,-26.978
0.230,-0.803,2.105,-116.333,96.741,-34.912
0.379,-0.739,2.193,-126.709,107.666,-37.842
0.586,-0.519,2.321,-148.926,113.953,-34.180
0.819,-0.187,2.398,-175.415,120.972,-29.724
1.061,0.271,2.382,-191.956,128.235,-28.076
1.307,0.743,2.205,-189.941,134.033,-31.067
1.562,1.143,1.927,-186.890,130.737,-42.725
1.761,1.511,1.606,-195.862,111.938,-55.359
1.863,1.754,1.311,-204.773,79.468,-67.566
1.904,1.990,1.099,-210.205,41.626,-79.163
1.882,2.070,0.906,-203.918,4.211,-94.849
1.904,1.989,0.750,-192.200,-29.663,-115.051
1.898,1.769,0.631,-180.481,-58.899,-132.690
1.906,1.552,0.505,-161.377,-78.735,-139.648
1.913,1.264,0.284,-150.269,-87.280,-133.362
1.930,0.942,-0.001,-148.621,-89.478,-114.502
1.937,0.736,-0.208,-162.659,-93.567,-81.909
1.751,0.637,-0.242,-177.063,-100.098,-40.161
1.480,0.608,-0.296,-177.246,-98.022,2.991
1.215,0.483,-0.410,-162.598,-84.351,42.175
1.015,0.480,-0.450,-146.362,-68.176,81.055
0.808,0.483,-0.404,-132.690,-53.162,108.826
0.653,0.487,-0.461,-113.403,-31.555,121.887
0.544,0.364,-0.571,-90.088,-9.338,123.474
0.458,0.257,-0.631,-59.998,3.845,128.784
0.329,0.184,-0.703,-25.269,11.719,143.799
0.183,0.106,-0.805,9.033,18.555,159.363
0.039,0.111,-0.770,37.476,19.775,174.988
-0.083,0.139,-0.671,65.491,19.043,185.669
-0.185,0.126,-0.674,94.299,22.156,186.401
-0.243,0.154,-0.805,125.061,23.682,180.786
-0.306,0.130,-1.059,151.672,16.541,170.044
-0.295,0.099,-1.214,157.349,-0.610,155.212
-0.276,0.013,-1.146,152.344,-30.212,139.832
-0.315,-0.070,-0.984,161.560,-52.856,124.634
-0.352,-0.152,-0.902,176.941,-56.702,109.680
-0.321,-0.241,-0.815,184.692,-53.833,93.994
-0.284,-0.347,-0.603,190.430,-53.345,75.989
-0.311,-0.538,-0.370,198.486,-50.598,55.542
-0.384,-0.753,-0.128,205.261,-47.607,41.016
-0.445,-0.924,0.073,212.524,-43.762,38.208
-0.520,-1.067,0.294,218.811,-36.194,47.668
-0.540,-1.111,0.624,221.313,-26.123,65.125
-0.543,-1.122,0.883,220.581,-10.742,78.979
-0.506,-1.159,0.924,220.581,11.719,84.106
-0.474,-1.157,0.962,219.177,26.306,86.975
-0.432,-1.125,1.070,210.083,24.963,87.708
-0.377,-1.054,1.198,191.772,15.503,81.665
-0.324,-1.067,1.263,171.204,8.789,68.542
-0.222,-1.059,1.274,150.940,9.094,59.631
-0.124,-1.013,1.307,133.667,11.780,58.655
-0.046,-1.007,1.416,113.037,14.160,56.946
-0.025,-1.015,1.526,86.975,17.334,54.626
-0.014,-0.990,1.582,57.312,22.400,53.223
-0.055,-0.929,1.617,31.311,25.269,51.636
-0.129,-0.803,1.710,13.184,23.743,47.791
-0.203,-0.658,1.756,1.831,22.583,35.278
-0.202,-0.554,1.655,-1.404,24.841,12.695
-0.122,-0.459,1.560,-3.662,23.315,-16.357
-0.033,-0.443,1.567,-11.536,16.785,-49.011
0.027,-0.466,1.611,-16.235,13.855,-74.707
0.104,-0.426,1.665,-18.433,17.639,-85.144
0.225,-0.370,1.678,-17.456,29.968,-84.290
0.299,-0.297,1.576,-13.489,46.448,-77.454
0.281,-0.295,1.624,-14.343,59.021,-70.618
0.343,-0.118,1.560,-18.066,81.360,-55.603
0.444,0.001,1.287,-9.705,103.210,-47.791
0.511,0.127,1.193,-7.141,93.628,-47.668
0.514,0.257,1.153,-13.550,75.562,-53.406
0.568,0.266,1.004,-20.386,62.439,-66.711
0.618,0.301,0.991,-33.569,37.415,-79.407
0.638,0.262,1.076,-56.213,10.437,-91.370
0.674,0.188,1.142,-76.599,-7.263,-95.886
0.703,0.244,1.196,-90.881,-12.390,-87.097
0.736,0.305,1.143,-95.398,-7.263,-74.036
0.764,0.348,1.038,-97.107,-1.709,-61.584
0.781,0.389,0.954,-97.168,1.282,-47.546
0.775,0.447,0.887,-93.201,2.502,-30.396
0.749,0.518,0.838,-85.693,-0.122,-13.367
0.696,0.579,0.820,-77.820,-5.798,-0.305
0.633,0.662,0.803,-65.918,-11.047,7.507
0.577,0.636,0.781,-50.720,-15.381,5.798
0.513,0.619,0.853,-40.405,-21.545,0.549
0.465,0.551,0.894,-29.053,-21.729,-5.493
0.420,0.454,0.876,-16.174,-15.991,-8.362
0.384,0.409,0.852,-6.348,-10.437,-5.798
0.366,0.382,0.862,-3.540,-8.057,-1.892
0.344,0.362,0.917,-1.404,-6.226,1.465
0.312,0.324,0.922,5.981,-0.732,4.761
0.284,0.299,0.881,14.526,6.165,7.874
0.261,0.276,0.850,19.043,9.338,9.949
0.239,0.246,0.856,20.081,10.071,11.047
0.225,0.224,0.899,21.606,11.963,11.902
0.222,0.205,0.908,24.536,16.235,12.512
0.227,0.185,0.891,26.794,19.165,12.695
0.230,0.153,0.868,27.466,19.470,12.268
0.230,0.138,0.791,28.015,19.226,12.268
0.227,0.151,0.734,25.391,17.578,13.062
0.222,0.146,0.786,17.822,11.902,12.268
0.221,0.127,0.850,7.385,5.859,9.888
0.220,0.115,0.834,0.122,2.625,8.301
0.209,0.123,0.791,-2.930,0.732,7.935
0.197,0.143,0.813,-5.981,-2.319,7.019
0.209,0.136,0.846,-9.521,-4.028,4.272
0.229,0.118,0.867,-11.414,-3.479,1.587
0.252,0.124,0.879,-12.573,-2.808,0.427
0.284,0.137,0.901,-14.893,-2.258,0.183
0.313,0.140,0.908,-15.198,-0.854,-0.061
0.338,0.146,0.898,-12.939,0.305,0.854
0.351,0.148,0.909,-10.498,0.122,1.953
0.354,0.146,0.929,-8.545,-0.610,3.113
0.336,0.130,0.924,-4.578,0.549,4.028
0.320,0.122,0.926,-0.732,2.441,4.761
0.314,0.112,0.962,-0.305,2.563,5.005
0.305,0.095,0.981,-0.244,2.441,4.578
0.297,0.090,0.975,2.869,3.357,5.127
0.282,0.099,0.981,5.554,4.456,5.127

0.132,-0.317,2.107,-118.530,57.129,-46.875
0.237,-0.078,2.146,-133.850,71.838,-49.561
0.401,0.269,2.151,-150.635,86.853,-55.847
0.615,0.604,2.071,-164.429,99.365,-70.435
0.867,0.932,1.920,-185.974,105.225,-90.759
1.145,1.211,1.815,-227.783,101.257,-115.173
1.416,1.455,1.631,-262.695,92.712,-138.306
1.678,1.646,1.379,-288.391,85.693,-154.480
1.892,1.592,0.871,-280.579,78.552,-168.335
2.074,1.522,0.365,-238.525,62.317,-170.532
2.222,1.522,0.177,-198.364,27.466,-158.630
2.288,1.409,0.258,-182.556,-17.212,-146.362
2.295,1.079,0.142,-179.199,-51.331,-133.423
2.266,0.866,-0.171,-177.979,-63.416,-106.812
2.216,0.727,-0.372,-168.274,-68.604,-64.148
2.127,0.633,-0.455,-152.710,-66.467,-15.869
1.908,0.580,-0.519,-133.057,-52.734,32.837
1.622,0.534,-0.675,-106.873,-32.104,76.721
1.410,0.561,-0.956,-69.580,-12.756,112.000
1.132,0.545,-1.154,-24.780,-5.432,135.315
0.780,0.445,-1.120,12.878,-13.184,149.780
0.460,0.375,-0.985,41.687,-20.386,161.865
0.206,0.319,-0.943,64.331,-16.541,173.706
0.024,0.293,-1.006,80.872,-6.897,184.021
-0.031,0.304,-1.055,89.294,-3.967,190.735
-0.152,0.281,-1.067,94.116,-11.047,187.073
-0.255,0.208,-1.040,92.163,-23.315,176.392
-0.371,0.110,-1.045,104.187,-30.212,163.391
-0.460,0.043,-1.016,123.413,-34.241,150.879
-0.498,-0.046,-0.914,139.832,-40.283,135.193
-0.492,-0.148,-0.810,156.189,-45.715,118.103
-0.455,-0.268,-0.666,172.058,-49.316,101.868
-0.414,-0.427,-0.523,185.974,-51.575,87.646
-0.366,-0.595,-0.438,200.195,-52.246,78.674
-0.326,-0.758,-0.341,217.285,-50.415,76.233
-0.347,-0.943,-0.117,235.962,-51.758,77.820
-0.365,-1.011,0.167,257.263,-55.054,78.186
-0.507,-1.139,0.361,277.649,-54.504,72.632
-0.603,-1.185,0.524,285.767,-48.767,73.975
-0.621,-1.182,0.691,284.485,-38.879,76.660
-0.572,-1.216,0.794,281.616,-23.926,74.524
-0.481,-1.267,0.888,277.954,-11.414,69.275
-0.450,-1.312,1.092,266.235,-13.184,63.171
-0.456,-1.358,1.321,243.652,-24.231,57.129
-0.445,-1.411,1.440,217.346,-28.992,52.246
-0.383,-1.345,1.504,192.566,-27.405,51.453
-0.360,-1.332,1.629,166.870,-24.353,47.913
-0.321,-1.269,1.681,139.160,-17.639,43.823
-0.252,-1.211,1.586,117.188,-4.639,40.161
-0.173,-1.137,1.502,98.511,5.188,37.231
-0.105,-1.031,1.497,76.904,10.742,34.912
-0.077,-0.907,1.474,57.495,16.174,30.823
-0.065,-0.718,1.335,47.363,22.217,23.315
-0.006,-0.523,1.226,36.926,24.048,7.263
0.050,-0.427,1.286,21.912,14.648,-15.442
0.106,-0.396,1.458,12.939,6.104,-45.044
0.136,-0.553,1.594,10.742,7.385,-77.393
0.142,-0.646,1.694,5.127,13.794,-92.957
0.094,-0.658,1.772,-2.319,25.452,-94.360
0.177,-0.504,1.796,-14.648,42.480,-91.309
0.164,-0.474,1.699,-22.461,57.312,-96.252
0.128,-0.487,1.794,-37.659,57.129,-106.079
0.205,-0.394,1.740,-49.255,73.303,-103.821
0.368,-0.307,1.577,-45.898,95.032,-100.952
0.496,-0.208,1.512,-48.706,102.173,-99.060
0.609,-0.143,1.315,-51.147,107.971,-96.741
0.677,0.114,1.106,-52.795,103.638,-88.501
0.710,0.281,1.003,-70.679,88.562,-91.431
0.732,0.251,0.963,-93.506,68.604,-103.638
0.795,0.245,0.904,-113.770,47.485,-107.483
0.863,0.352,0.889,-124.207,28.809,-99.609
0.890,0.386,0.936,-126.587,12.451,-91.431
0.891,0.397,1.041,-128.357,0.305,-81.665
0.858,0.401,1.132,-125.793,-0.977,-67.688
0.833,0.434,1.113,-118.774,9.766,-50.476
0.781,0.483,1.026,-111.267,20.752,-33.447
0.727,0.481,0.922,-107.056,24.231,-14.832
0.674,0.582,0.865,-95.764,22.766,0.793
0.614,0.613,0.805,-80.872,20.386,1.526
0.569,0.590,0.769,-68.237,12.817,-2.869
0.527,0.529,0.824,-55.603,0.916,-6.470
0.503,0.451,0.877,-41.016,-4.456,-7.446
0.490,0.396,0.884,-26.917,-5.249,-4.578
0.469,0.367,0.867,-16.357,-5.066,0.488
0.451,0.337,0.865,-10.620,-5.310,5.859
0.419,0.295,0.863,-5.676,-4.272,11.230
0.377,0.268,0.849,1.038,-1.343,16.479
0.323,0.245,0.838,8.850,3.174,20.935
0.279,0.220,0.830,14.709,7.080,23.621
0.259,0.194,0.817,16.907,9.033,23.987
0.253,0.173,0.797,17.395,9.644,23.193
0.248,0.162,0.778,17.029,9.338,21.667
