aX,aY,aZ,gX,gY,gZ
-0.048,0.464,1.518,103.943,-170.837,21.545
0.066,0.248,1.652,134.277,-152.954,21.118
-0.206,0.060,1.715,145.264,-146.912,29.236
-0.412,0.112,1.915,132.141,-115.234,32.227
-0.625,-0.023,2.228,104.187,-98.877,32.532
-0.734,-0.068,2.364,70.374,-57.068,32.104
-0.791,-0.002,2.249,39.246,-7.263,23.071
-0.802,-0.028,2.158,12.756,18.860,3.418
-0.771,-0.024,2.093,-9.949,31.372,-13.245
-0.714,-0.007,2.008,-21.851,39.795,-23.926
-0.615,0.085,1.870,-28.442,47.363,-24.231
-0.551,0.039,1.776,-27.466,46.936,-22.156
-0.570,0.320,1.540,-25.085,44.006,-19.897
-0.563,0.141,1.516,-16.724,7.935,-25.208
-0.505,0.133,1.631,-24.170,-21.729,-22.156
-0.496,0.173,1.587,-25.635,-13.733,-14.160
-0.492,0.211,1.520,-23.193,1.221,-11.169
-0.453,0.199,1.528,-24.170,11.414,-13.306
-0.380,0.217,1.550,-24.963,17.944,-13.245
-0.375,0.247,1.536,-23.376,20.142,-12.085
-0.365,0.216,1.578,-22.278,17.883,-14.771
-0.373,0.217,1.668,-24.109,12.512,-11.292
-0.393,0.247,1.758,-28.015,7.141,-7.080
-0.344,0.255,1.865,-33.508,4.211,-8.057
-0.262,0.504,1.969,-39.612,13.672,-23.071
-0.266,0.582,1.859,-37.659,42.847,-74.585
-0.284,0.328,1.718,-38.269,51.331,-131.592
-0.291,-0.024,1.739,-55.359,37.598,-146.729
-0.218,-0.106,1.695,-71.533,27.527,-110.352
-0.232,-0.066,1.714,-76.050,26.428,-56.885
-0.077,0.099,1.598,-77.820,32.043,-9.460
-0.029,0.187,1.488,-79.163,49.072,8.850
-0.018,0.203,1.261,-69.214,80.505,3.052
-0.024,0.153,0.918,-54.382,103.394,-6.714
-0.002,0.040,0.566,-35.217,105.286,-11.719
0.019,-0.095,0.345,-27.283,86.060,-9.888
-0.017,-0.180,0.128,-25.208,65.247,0.732
-0.060,-0.143,-0.090,-17.456,49.438,17.944
-0.084,-0.034,-0.235,-8.911,31.494,33.264
-0.030,0.047,-0.253,-11.169,8.362,41.687
-0.024,0.122,-0.153,-21.057,-15.686,45.410
-0.082,0.150,-0.030,-31.677,-37.903,45.654
-0.139,0.097,0.070,-32.959,-55.847,41.809
-0.138,0.052,0.181,-35.950,-66.406,37.842
-0.125,0.044,0.247,-36.682,-67.993,36.682
-0.121,0.058,0.293,-34.973,-63.110,37.231
-0.116,0.066,0.328,-33.936,-53.406,35.950
-0.105,0.051,0.354,-29.297,-41.565,32.776
-0.085,0.049,0.376,-21.545,-29.785,32.715
-0.070,0.081,0.403,-11.353,-19.958,34.973
-0.063,0.150,0.450,4.211,-14.526,32.898
-0.044,0.253,0.542,9.705,-11.841,26.184
-0.052,0.253,0.632,10.559,-8.911,12.451
-0.067,0.178,0.684,17.761,-3.723,-1.709
-0.090,0.141,0.712,21.057,2.869,-7.812
-0.107,0.166,0.751,18.860,7.812,-9.888
-0.147,0.171,0.787,16.479,11.597,-12.451
-0.208,0.141,0.793,12.329,15.625,-14.648
-0.230,0.093,0.792,5.127,16.357,-13.000
-0.227,0.104,0.838,-3.296,11.719,-5.981
-0.216,0.196,0.896,-11.780,8.667,-1.465
-0.220,0.206,0.929,-11.475,9.460,-4.883
-0.231,0.184,0.917,-7.080,12.634,-10.315
-0.227,0.172,0.893,-2.808,14.282,-12.146
-0.232,0.194,0.906,-0.732,12.939,-11.353
-0.226,0.219,0.937,-0.854,11.353,-10.864
-0.233,0.225,0.972,-1.343,11.230,-11.902
-0.222,0.220,0.980,-1.770,11.780,-11.658
-0.211,0.232,0.991,-1.648,10.010,-8.728
-0.187,0.250,1.019,-1.282,7.263,-4.761
-0.177,0.280,1.072,-1.221,6.348,-2.747
-0.188,0.291,1.083,0.000,9.888,-3.540
-0.227,0.262,1.033,2.136,16.174,-5.737
-0.193,0.253,0.990,-1.282,20.447,-6.958
-0.161,0.259,0.990,-2.991,20.508,-7.080
-0.121,0.266,0.997,-2.625,19.226,-6.226
-0.111,0.281,0.994,-0.183,17.517,-5.249
-0.099,0.265,0.985,2.563,14.587,-4.333
-0.078,0.266,1.003,4.089,10.437,-2.930
-0.085,0.268,1.012,5.676,7.874,-1.587
-0.104,0.259,0.997,6.775,6.348,0.061
-0.102,0.239,1.007,6.104,4.639,1.831
-0.094,0.233,1.017,4.883,5.310,4.150
-0.109,0.242,1.003,4.395,9.155,6.958
-0.111,0.264,0.973,3.113,13.184,8.850
-0.129,0.271,0.949,3.784,14.160,8.240
-0.156,0.255,0.920,3.113,14.465,5.371
-0.159,0.237,0.895,0.732,11.963,3.601
-0.156,0.245,0.894,-4.822,7.812,3.235
-0.133,0.247,0.892,-8.606,3.906,3.052
-0.122,0.243,0.906,-8.667,-0.427,2.808
-0.121,0.246,0.915,-8.240,-2.380,2.014
-0.113,0.237,0.906,-6.714,-2.869,0.977
-0.107,0.233,0.906,-5.676,-3.174,0.793
-0.104,0.227,0.913,-5.188,-3.235,1.160
-0.096,0.220,0.927,-3.784,-3.113,1.465
-0.093,0.229,0.936,-1.221,-2.563,2.808
-0.094,0.232,0.946,0.977,-1.221,3.723
-0.102,0.235,0.954,2.197,0.488,3.723
-0.107,0.235,0.966,2.563,1.221,2.869
-0.103,0.225,0.967,1.831,2.136,1.404
-0.098,0.235,0.963,1.282,3.723,1.587
-0.101,0.242,0.961,1.709,4.211,1.953
-0.097,0.242,0.955,1.526,3.601,1.587
-0.091,0.240,0.957,1.099,2.625,1.099
-0.087,0.248,0.954,2.319,1.648,1.648
-0.093,0.254,0.944,3.418,0.793,2.441
-0.104,0.253,0.941,4.211,-0.793,2.502
-0.120,0.248,0.950,3.723,-2.747,2.136
-0.128,0.244,0.961,0.732,-3.479,1.526
-0.115,0.216,0.979,-0.854,-3.784,1.404
-0.141,0.233,1.008,-0.854,-2.686,4.639
-0.163,0.257,1.000,-0.671,0.488,6.226
-0.134,0.258,0.972,-1.770,1.709,3.113
-0.124,0.241,0.984,-3.845,-0.122,0.671
-0.118,0.241,0.998,-4.028,-1.892,0.977
-0.112,0.254,1.000,-1.648,-2.441,2.258
-0.107,0.255,0.993,0.854,-3.235,3.235
-0.108,0.259,0.999,3.540,-4.761,4.028

-0.207,0.233,2.079,54.993,-97.778,-4.822
-0.279,0.082,2.059,49.622,-60.669,-1.282
-0.298,0.185,1.733,36.072,-20.813,8.606
-0.386,0.129,1.854,14.954,-15.625,6.775
-0.386,0.161,1.687,1.160,6.165,9.583
-0.455,0.147,1.557,-5.310,20.752,9.155
-0.497,0.099,1.477,-8.667,22.827,5.127
-0.521,0.062,1.399,-10.681,20.142,0.061
-0.537,0.001,1.388,-9.583,15.686,-5.310
-0.522,-0.034,1.400,-6.775,13.672,-7.996
-0.479,-0.011,1.397,-1.831,11.108,-6.897
-0.460,0.013,1.430,3.357,4.028,-8.423
-0.409,-0.009,1.498,4.700,-3.296,-11.353
-0.368,0.015,1.535,3.540,-6.897,-9.949
-0.356,0.026,1.546,1.709,-7.568,-8.728
-0.346,0.001,1.554,-3.052,-6.226,-8.240
-0.328,0.017,1.558,-10.010,-3.113,-5.615
-0.321,0.023,1.559,-15.015,-0.671,-3.174
-0.326,0.030,1.604,-19.470,0.000,-2.502
-0.322,0.022,1.668,-23.193,-0.366,-2.258
-0.336,0.049,1.708,-26.794,0.793,-1.099
-0.321,0.061,1.715,-31.677,2.869,-1.343
-0.315,0.061,1.728,-36.499,3.906,-1.892
-0.301,0.134,1.700,-41.870,5.737,-1.709
-0.297,0.176,1.677,-51.392,6.470,-5.249
-0.269,0.072,1.676,-57.861,8.911,-13.489
-0.240,0.076,1.708,-62.744,17.639,-16.235
-0.202,0.084,1.703,-65.552,33.936,-17.212
-0.154,0.079,1.532,-63.965,58.960,-17.822
-0.124,0.022,1.286,-61.462,77.454,-17.822
-0.099,-0.001,1.084,-59.570,78.674,-13.306
-0.080,0.030,0.948,-55.481,66.650,-6.226
-0.062,0.055,0.797,-44.861,46.753,-0.854
-0.039,0.039,0.614,-35.950,19.592,2.014
-0.017,0.034,0.493,-29.236,-19.470,6.714
-0.075,-0.040,0.495,-31.921,-58.044,10.620
-0.078,-0.080,0.556,-47.119,-75.378,25.269
-0.089,0.013,0.511,-58.167,-74.890,45.776
-0.097,0.042,0.412,-54.504,-69.336,57.007
-0.098,0.052,0.312,-56.580,-64.209,64.148
-0.128,0.061,0.250,-59.387,-60.547,68.726
-0.165,0.028,0.167,-55.786,-53.833,72.021
-0.180,0.090,0.086,-41.992,-44.556,81.604
-0.190,0.220,-0.000,-33.936,-33.203,78.186
-0.207,0.224,-0.022,-21.729,-30.762,58.838
-0.215,0.205,0.045,-11.963,-36.316,39.917
-0.212,0.192,0.163,-2.625,-43.518,25.879
-0.233,0.208,0.273,8.972,-46.387,12.756
-0.258,0.127,0.358,17.029,-44.250,-0.122
-0.259,0.056,0.422,23.071,-38.940,-4.761
-0.252,0.054,0.471,26.917,-29.724,-3.723
-0.250,0.075,0.515,28.015,-18.799,-1.404
-0.251,0.071,0.556,26.062,-8.423,-0.549
-0.256,0.062,0.584,23.010,0.122,-0.183
-0.262,0.062,0.606,18.005,7.080,0.488
-0.269,0.064,0.642,11.780,13.245,0.549
-0.265,0.067,0.662,6.042,18.738,-0.366
-0.216,0.165,0.709,2.930,18.372,-2.136
-0.276,0.131,0.798,4.211,14.771,-11.353
-0.279,0.035,0.893,4.272,13.428,-18.188
-0.297,0.028,0.970,5.127,14.404,-14.709
-0.284,0.035,1.014,5.676,17.029,-6.775
-0.285,0.096,1.041,2.319,19.348,-1.892
-0.291,0.114,1.042,-2.441,21.973,-2.258
-0.297,0.117,1.044,-6.836,22.705,-4.700
-0.295,0.138,1.050,-11.047,21.667,-6.958
-0.290,0.156,1.021,-13.000,20.874,-8.240
-0.283,0.174,1.000,-14.099,19.287,-8.850
-0.281,0.172,0.993,-16.113,16.724,-9.949
-0.284,0.191,0.999,-18.127,13.855,-9.521
-0.288,0.208,0.994,-18.372,10.803,-8.545
-0.284,0.209,0.990,-16.968,7.690,-8.057
-0.282,0.225,0.997,-14.832,6.836,-6.958
-0.275,0.231,0.991,-10.254,7.263,-5.981
-0.270,0.229,0.981,-5.493,7.812,-5.066
-0.267,0.232,0.973,-1.587,7.874,-3.540
-0.278,0.224,0.979,1.587,6.775,-2.380
-0.284,0.214,0.990,3.113,5.676,-1.770
-0.289,0.207,0.987,3.357,5.737,-1.526
-0.290,0.200,0.967,3.906,6.287,-1.221
-0.283,0.205,0.943,3.357,5.249,-1.038
-0.276,0.206,0.941,2.930,2.625,-0.977
-0.266,0.205,0.942,2.686,0.549,-0.916
-0.264,0.206,0.939,3.540,-0.427,0.000
-0.277,0.196,0.920,3.906,-1.526,1.221
-0.279,0.191,0.926,1.770,-3.113,1.892
-0.285,0.186,0.948,-0.061,-4.761,2.075
-0.287,0.178,0.957,-0.916,-4.517,2.014
-0.288,0.173,0.954,-1.465,-3.296,2.075
-0.285,0.178,0.952,-2.441,-2.258,1.953
-0.275,0.181,0.949,-2.808,-1.221,1.038
-0.266,0.177,0.955,-1.465,-0.488,0.549
-0.263,0.179,0.956,-0.244,0.427,0.671
-0.262,0.182,0.942,1.282,0.916,1.221
-0.260,0.181,0.947,2.380,-0.977,1.404
-0.255,0.176,0.958,2.869,-2.686,1.343
-0.250,0.179,0.965,3.113,-2.686,1.587
-0.256,0.181,0.966,4.578,-2.319,2.197
-0.259,0.176,0.958,5.005,-1.953,2.136
-0.255,0.171,0.961,4.517,-2.380,2.014
-0.250,0.168,0.980,3.601,-3.174,1.953
-0.250,0.174,0.995,3.479,-3.296,2.258
-0.252,0.174,0.998,3.784,-3.052,2.502
-0.251,0.175,0.993,3.723,-2.991,2.563
-0.248,0.172,0.985,2.869,-3.174,2.502
-0.241,0.175,0.984,1.587,-3.418,2.808
-0.239,0.173,0.988,0.854,-3.052,3.662
-0.236,0.170,0.986,0.732,-1.038,4.761
-0.238,0.167,0.969,2.136,2.136,6.104
-0.243,0.168,0.940,3.113,5.127,7.385
-0.242,0.173,0.896,3.723,6.287,7.874
-0.239,0.169,0.869,4.333,4.761,7.568
-0.237,0.161,0.857,4.272,2.625,7.141
-0.222,0.154,0.834,4.150,0.854,7.141
-0.214,0.151,0.808,6.409,-1.465,7.751
-0.208,0.141,0.784,10.254,-3.723,8.789
-0.196,0.122,0.744,12.756,-5.554,9.399
-0.177,0.100,0.651,13.184,-7.141,10.254
-0.152,0.080,0.560,11.536,-14.282,12.756

-0.600,0.109,1.787,6.836,1.160,-8.362
-0.570,0.107,1.780,-1.526,-2.808,-10.620
-0.576,0.103,1.762,-7.568,-4.639,-9.216
-0.597,0.084,1.720,-12.817,-5.371,-6.042
-0.598,0.073,1.674,-20.203,-7.019,-2.808
-0.629,0.060,1.651,-27.954,-10.010,1.404
-0.663,0.045,1.641,-33.691,-11.108,3.479
-0.648,0.027,1.651,-36.926,-8.423,1.892
-0.666,0.028,1.639,-37.292,-5.676,-2.075
-0.688,-0.004,1.734,-38.025,-5.493,-7.080
-0.658,0.003,1.866,-39.063,-3.357,-7.690
-0.654,0.022,2.028,-39.490,5.737,-6.470
-0.600,0.066,2.066,-42.969,24.597,-5.676
-0.518,0.075,1.930,-47.058,50.415,-7.751
-0.457,0.072,1.738,-49.805,71.655,-11.169
-0.382,0.070,1.561,-52.795,82.458,-14.343
-0.310,0.062,1.353,-55.176,84.106,-14.954
-0.229,0.025,1.164,-57.007,75.195,-12.329
-0.160,0.028,0.987,-57.129,58.044,-5.249
-0.114,0.078,0.853,-52.490,35.522,3.174
-0.086,0.095,0.697,-40.344,13.733,8.911
-0.064,0.106,0.552,-27.466,-6.775,12.390
-0.056,0.126,0.432,-21.301,-25.696,14.282
-0.144,0.055,0.337,-19.165,-40.466,15.625
-0.112,0.028,0.231,-21.729,-49.561,26.917
-0.108,0.057,0.137,-17.944,-59.265,40.955
-0.127,0.099,0.039,-5.981,-64.453,46.570
-0.160,0.130,-0.097,6.653,-62.805,43.152
-0.191,0.129,-0.212,15.564,-59.448,32.410
-0.187,0.139,-0.259,16.785,-57.861,18.433
-0.207,0.120,-0.211,16.296,-58.960,3.540
-0.208,0.062,-0.100,19.043,-60.974,-5.432
-0.193,0.017,0.009,21.851,-60.852,-8.484
-0.184,-0.011,0.110,24.475,-58.228,-7.874
-0.199,-0.018,0.204,26.367,-55.298,-4.456
-0.214,-0.014,0.272,28.259,-53.040,-1.343
-0.218,-0.031,0.288,30.640,-50.598,1.465
-0.228,-0.042,0.355,29.846,-51.758,3.784
-0.253,-0.049,0.474,22.095,-50.842,4.822
-0.274,-0.060,0.575,12.207,-42.725,3.601
-0.289,-0.066,0.622,4.517,-29.480,2.319
-0.310,-0.035,0.650,-2.258,-19.287,2.014
-0.330,-0.032,0.707,-8.545,-15.686,-0.061
-0.337,-0.031,0.818,-14.771,-13.245,-2.502
-0.349,-0.010,0.910,-15.442,-5.249,-2.991
-0.354,0.033,0.969,-12.329,5.615,-4.517
-0.369,-0.022,1.019,-8.728,17.334,-9.460
-0.400,-0.003,1.053,-7.568,30.457,-6.897
-0.419,0.147,0.986,-3.601,39.734,-5.310
-0.427,-0.022,0.998,-2.075,38.452,-16.968
-0.416,-0.052,1.056,-8.301,38.025,-14.465
-0.427,0.077,1.007,-5.554,40.955,-3.967
-0.446,0.089,0.956,-1.709,37.720,-3.052
-0.443,0.039,0.962,-4.089,27.710,-6.958
-0.440,0.055,0.992,-4.456,18.005,-6.836
-0.450,0.093,1.005,-4.517,13.733,-5.554
-0.460,0.083,1.002,-4.089,11.597,-6.714
-0.467,0.080,0.982,-5.310,8.728,-7.446
-0.466,0.088,0.986,-9.888,5.188,-7.935
-0.457,0.096,1.006,-14.526,3.479,-8.667
-0.444,0.117,0.997,-14.893,4.700,-8.301
-0.441,0.129,0.983,-13.672,6.165,-8.240
-0.430,0.137,0.968,-11.169,6.775,-8.301
-0.429,0.148,0.938,-7.874,6.531,-7.568
-0.419,0.156,0.907,-5.981,5.127,-6.165
-0.411,0.155,0.905,-4.578,2.319,-4.578
-0.415,0.158,0.923,-3.357,0.000,-3.113
-0.427,0.158,0.916,-0.366,-0.488,-1.648
-0.443,0.147,0.874,1.526,-0.854,-0.427
-0.432,0.148,0.844,0.671,-3.601,0.183
-0.429,0.149,0.865,-1.892,-7.324,-0.061
-0.421,0.146,0.890,-3.174,-8.423,-0.183
-0.410,0.150,0.906,-2.747,-7.202,0.000
-0.406,0.151,0.927,-1.770,-5.371,0.122
-0.411,0.141,0.933,-0.916,-3.113,-0.183
-0.397,0.135,0.925,-1.709,-0.977,-0.732
-0.383,0.128,0.939,-3.357,-0.366,-1.038
-0.376,0.128,0.965,-3.784,-0.061,-0.854
-0.372,0.129,0.970,-2.991,1.465,-0.305
-0.373,0.124,0.956,-1.343,4.150,-0.061
-0.374,0.113,0.933,0.732,5.493,0.305
-0.375,0.107,0.913,2.380,3.784,0.977
-0.381,0.105,0.915,2.014,0.732,1.709
-0.384,0.100,0.919,0.366,-1.526,2.136
-0.384,0.108,0.924,-1.465,-2.991,2.563
-0.388,0.112,0.922,-1.038,-3.723,2.930
-0.392,0.104,0.923,-0.305,-4.517,3.052
-0.391,0.106,0.931,-1.099,-4.456,3.296
-0.392,0.117,0.939,-1.709,-4.089,3.845
-0.402,0.121,0.943,-1.038,-3.845,4.150
-0.403,0.123,0.951,-0.793,-4.517,3.540
-0.401,0.123,0.960,-0.061,-4.822,2.625
-0.391,0.125,0.960,0.732,-3.967,2.197
-0.379,0.130,0.960,1.221,-3.052,2.136
-0.369,0.129,0.958,2.258,-1.953,2.441
-0.363,0.123,0.937,2.869,-1.282,3.479
-0.362,0.123,0.936,2.808,-3.235,5.127
-0.365,0.125,0.948,2.930,-5.371,6.592
-0.367,0.106,0.946,3.296,-6.592,6.470
-0.363,0.097,0.940,3.784,-7.629,6.226
-0.367,0.105,0.923,4.150,-7.446,6.714
-0.368,0.102,0.885,5.371,-5.615,6.226
-0.364,0.089,0.830,6.104,-4.395,5.127
-0.354,0.082,0.797,6.348,-4.883,4.333
-0.338,0.086,0.777,5.066,-5.493,4.333
-0.332,0.078,0.752,3.052,-4.761,4.456
-0.321,0.062,0.702,2.441,-2.441,4.272
-0.299,0.036,0.572,2.380,0.916,4.700
-0.290,0.042,0.453,-6.775,0.977,5.981
-0.286,0.075,0.418,-18.433,-3.723,7.263
-0.267,0.085,0.378,-22.888,-9.399,7.507
-0.232,0.074,0.263,-25.391,-11.169,7.935
-0.199,0.076,0.129,-30.640,-8.606,10.925
-0.181,0.086,-0.010,-32.104,-3.723,16.296
-0.175,0.092,-0.164,-23.804,2.747,21.179
-0.198,0.104,-0.256,-4.456,7.202,24.841
-0.213,0.065,-0.317,24.292,5.554,26.123
-0.240,-0.004,-0.311,48.889,-2.869,25.574
-0.243,-0.010,-0.245,67.261,-15.137,23.193

-0.694,-0.302,1.707,82.275,19.714,21.057
-0.899,-0.385,1.898,70.190,2.502,9.521
-0.575,-0.194,1.265,51.392,26.367,4.761
-0.639,0.033,1.672,35.706,-14.709,2.502
-0.576,-0.321,2.073,8.972,-75.012,-21.362
-0.516,-0.161,1.887,7.812,-34.546,-10.559
-0.629,-0.270,1.888,-4.578,-7.874,-5.249
-0.542,-0.108,1.335,-19.470,25.574,-1.160
-0.633,-0.089,1.264,-26.917,19.836,0.488
-0.599,-0.175,1.226,-30.823,0.488,-13.672
-0.606,-0.185,1.224,-26.428,-12.451,-19.653
-0.669,-0.230,1.334,-19.348,-27.039,-25.391
-0.711,-0.265,1.421,-11.658,-36.804,-29.724
-0.804,-0.288,1.564,-6.042,-42.603,-32.532
-0.854,-0.333,1.661,-3.967,-42.419,-35.400
-0.835,-0.387,1.699,-3.845,-35.889,-33.508
-0.889,-0.354,1.723,-7.751,-26.306,-26.062
-0.893,-0.350,1.745,-17.212,-13.306,-18.372
-0.833,-0.259,1.681,-30.396,3.235,-13.733
-0.805,-0.267,1.691,-43.152,15.808,-16.541
-0.789,-0.303,1.723,-55.298,26.611,-21.545
-0.768,-0.304,1.749,-64.453,39.185,-23.560
-0.755,-0.252,1.786,-68.420,48.035,-23.560
-0.752,-0.194,1.836,-68.176,51.270,-22.766
-0.724,-0.156,1.862,-67.932,53.955,-24.963
-0.678,-0.139,1.828,-69.275,57.007,-28.870
-0.644,-0.116,1.732,-72.632,56.030,-31.067
-0.578,-0.089,1.593,-78.918,52.124,-32.410
-0.508,-0.098,1.418,-84.961,46.997,-35.522
-0.433,-0.122,1.268,-91.736,41.748,-37.415
-0.337,-0.133,1.147,-98.267,43.030,-36.865
-0.267,-0.106,0.952,-95.520,49.988,-31.982
-0.272,-0.144,0.762,-85.327,50.903,-22.522
-0.226,-0.147,0.601,-86.365,44.189,-4.517
-0.200,-0.068,0.411,-87.585,34.180,16.663
-0.184,0.008,0.323,-78.186,15.198,33.569
-0.187,0.057,0.292,-70.190,-4.578,40.894
-0.167,0.097,0.234,-60.791,-18.494,39.612
-0.150,0.108,0.131,-51.514,-30.762,31.799
-0.168,0.099,0.067,-44.739,-46.692,22.949
-0.194,0.097,0.050,-43.152,-62.012,16.296
-0.214,0.100,0.033,-42.480,-68.848,9.705
-0.214,0.137,-0.019,-37.720,-67.932,3.906
-0.216,0.150,-0.067,-27.527,-65.369,-3.235
-0.231,0.106,-0.057,-17.700,-64.758,-10.376
-0.236,0.081,-0.010,-11.353,-65.674,-13.123
-0.225,0.067,0.078,-4.883,-65.796,-13.245
-0.239,0.049,0.197,-0.244,-62.500,-13.123
-0.250,0.054,0.285,3.357,-53.467,-11.658
-0.263,0.045,0.349,7.202,-42.908,-10.437
-0.271,0.039,0.400,9.827,-33.020,-8.850
-0.275,0.039,0.455,12.451,-24.292,-6.592
-0.288,0.043,0.519,15.991,-15.320,-4.089
-0.310,0.038,0.592,20.325,-6.470,-2.319
-0.332,0.019,0.677,22.156,1.770,-1.526
-0.358,0.007,0.745,22.095,11.047,-0.122
-0.395,0.009,0.776,20.203,20.813,1.404
-0.404,0.028,0.822,15.381,26.245,1.282
-0.399,0.033,0.897,11.536,28.564,-0.732
-0.396,0.028,0.978,10.681,31.555,-2.441
-0.399,0.050,1.006,11.353,36.072,-2.319
-0.411,0.070,1.009,8.911,38.940,-2.563
-0.423,0.081,1.023,3.113,38.696,-4.089
-0.423,0.084,1.025,-3.052,36.987,-5.798
-0.415,0.105,1.038,-7.141,35.095,-5.920
-0.417,0.107,1.039,-7.263,34.302,-5.371
-0.427,0.094,1.024,-5.493,35.278,-4.089
-0.426,0.117,0.987,-4.700,36.438,-1.648
-0.446,0.137,0.955,-4.333,35.034,0.549
-0.452,0.126,0.960,-5.920,31.128,0.000
-0.449,0.132,0.967,-5.859,27.588,-0.244
-0.456,0.134,0.964,-4.822,25.269,-0.122
-0.439,0.144,0.956,-4.089,23.376,-0.793
-0.437,0.160,0.954,-1.526,20.691,-1.465
-0.439,0.182,0.953,2.625,17.456,-2.441
-0.428,0.171,0.949,8.118,14.221,-3.784
-0.428,0.122,0.939,15.625,11.658,-4.395
-0.434,0.108,0.921,17.029,10.315,-2.686
-0.411,0.121,0.914,12.024,9.705,-0.732
-0.387,0.139,0.919,7.263,8.423,-0.244
-0.379,0.141,0.937,6.409,6.775,-1.526
-0.365,0.140,0.961,6.714,6.165,-2.502
-0.348,0.146,0.977,8.972,7.751,-2.869
-0.348,0.132,0.970,11.963,11.230,-3.906
-0.329,0.113,0.930,13.611,14.343,-3.906
-0.331,0.135,0.942,12.878,15.381,-2.441
-0.329,0.140,0.904,14.099,16.663,-2.075
-0.337,0.117,0.858,14.038,16.785,-3.418
-0.310,-0.004,0.874,11.780,15.442,1.099
-0.333,0.080,0.889,10.010,15.503,15.625
-0.356,0.125,0.898,11.475,14.587,18.616
-0.345,0.104,0.928,6.531,12.878,10.193
-0.320,0.046,0.960,1.404,13.428,0.183
-0.314,0.056,0.972,-1.953,18.921,-0.732
-0.310,0.069,0.989,-4.211,26.062,0.977
-0.319,0.088,0.966,-4.272,32.471,1.099
-0.314,0.101,0.958,-5.493,33.936,-1.282
-0.307,0.119,0.959,-7.141,33.203,-6.592
-0.305,0.087,0.949,-7.263,33.081,-13.733
-0.317,0.055,0.938,-4.456,32.654,-17.700
-0.338,0.043,0.946,-2.808,31.372,-17.029
-0.348,0.026,0.922,-3.784,29.114,-13.977
-0.317,0.005,0.926,-6.653,22.522,-8.484
-0.282,0.083,0.973,-11.047,14.709,-1.770
-0.282,0.105,1.001,-12.268,12.024,0.732
-0.271,0.094,0.992,-12.024,12.512,1.099
-0.262,0.099,0.994,-12.756,12.390,3.723
-0.261,0.120,1.013,-14.343,12.146,7.202
-0.276,0.135,1.037,-15.076,12.390,10.010
-0.280,0.132,1.053,-15.930,13.245,10.681
-0.265,0.130,1.058,-16.418,14.893,11.047
-0.262,0.129,1.085,-16.357,17.334,11.780
-0.251,0.148,1.086,-14.526,21.729,13.245
-0.265,0.151,1.045,-10.986,26.367,13.855
-0.259,0.135,0.982,-10.010,27.710,13.245
-0.243,0.114,0.964,-11.108,21.790,12.939
-0.246,0.122,1.001,-12.939,14.343,13.611
-0.226,0.116,1.026,-14.893,13.428,12.756
-0.210,0.117,0.977,-15.381,17.700,12.512

-0.405,-0.233,1.051,99.487,25.879,19.348
-0.524,-0.085,1.812,79.712,-38.757,19.348
-0.387,-0.252,2.027,55.237,-85.083,-13.367
-0.340,-0.311,2.345,36.682,-71.838,-17.151
-0.340,-0.289,1.854,22.888,-20.203,-11.230
-0.474,-0.167,1.810,1.221,-6.348,3.601
-0.453,-0.219,1.659,-11.963,-6.775,-3.174
-0.508,-0.250,1.659,-13.000,-13.245,-9.338
-0.576,-0.253,1.750,-10.193,-25.391,-12.939
-0.626,-0.240,1.760,-5.737,-30.518,-17.944
-0.618,-0.309,1.776,-3.906,-33.813,-21.973
-0.553,-0.271,1.746,-3.540,-32.776,-20.081
-0.490,-0.212,1.679,-4.333,-28.992,-17.395
-0.492,-0.183,1.648,-7.263,-25.269,-15.808
-0.503,-0.185,1.555,-13.000,-19.897,-11.963
-0.487,-0.179,1.475,-22.217,-15.442,-9.705
-0.503,-0.189,1.381,-28.625,-13.123,-5.127
-0.524,-0.193,1.316,-32.654,-11.963,-2.380
-0.540,-0.211,1.301,-35.950,-14.038,-1.404
-0.565,-0.205,1.294,-37.354,-13.672,-0.427
-0.567,-0.219,1.308,-36.499,-10.559,-1.404
-0.576,-0.224,1.389,-35.950,-7.690,-3.296
-0.594,-0.202,1.478,-35.706,-3.601,-4.333
-0.611,-0.185,1.580,-35.095,1.465,-6.531
-0.627,-0.147,1.674,-35.034,6.226,-8.972
-0.621,-0.117,1.749,-36.011,8.911,-12.207
-0.597,-0.104,1.810,-37.659,9.094,-16.541
-0.578,-0.066,1.842,-40.039,8.728,-18.860
-0.533,-0.019,1.801,-44.495,8.484,-22.339
-0.462,-0.041,1.725,-50.842,3.052,-28.931
-0.381,-0.041,1.636,-59.875,-4.700,-31.921
-0.326,-0.047,1.498,-68.054,-11.353,-31.128
-0.233,-0.040,1.350,-74.524,-18.555,-27.527
-0.148,-0.056,1.222,-74.158,-28.503,-20.142
-0.093,-0.050,1.083,-73.608,-32.410,-10.742
-0.055,-0.034,0.929,-76.050,-29.602,-2.747
-0.033,-0.031,0.755,-76.294,-25.818,3.662
-0.004,0.020,0.568,-76.965,-23.315,11.292
0.026,0.056,0.375,-80.994,-22.339,14.282
0.023,0.079,0.169,-79.529,-23.499,11.597
-0.024,0.117,-0.000,-71.655,-28.442,6.714
-0.081,0.093,-0.061,-61.340,-35.583,1.282
-0.111,0.049,-0.173,-46.448,-35.217,-0.854
-0.156,0.018,-0.248,-29.480,-31.616,0.549
-0.205,0.013,-0.326,-13.123,-28.015,1.587
-0.240,-0.008,-0.308,2.014,-30.151,0.793
-0.268,-0.034,-0.176,14.832,-35.217,-1.526
-0.279,-0.076,-0.032,22.400,-36.194,-4.395
-0.276,-0.094,0.089,24.902,-31.982,-7.141
-0.286,-0.081,0.220,24.048,-25.452,-7.385
-0.277,-0.070,0.272,20.325,-16.663,-7.629
-0.268,-0.062,0.293,15.869,-7.874,-7.385
-0.268,-0.042,0.310,13.245,-2.075,-5.249
-0.268,-0.034,0.369,12.756,2.808,-3.052
-0.276,-0.036,0.445,13.611,8.972,-2.075
-0.282,-0.033,0.534,15.076,13.977,-1.648
-0.290,-0.036,0.640,15.442,16.724,-2.136
-0.297,-0.033,0.779,14.343,17.944,-2.869
-0.306,-0.016,0.884,13.855,21.973,-3.723
-0.315,-0.019,0.969,12.207,26.489,-5.859
-0.323,-0.008,1.013,9.216,29.663,-8.057
-0.325,-0.004,1.030,5.920,31.799,-9.827
-0.325,0.005,1.041,1.953,31.677,-11.047
-0.323,0.024,1.083,-2.380,29.297,-11.414
-0.322,0.038,1.120,-5.554,27.954,-10.742
-0.335,0.053,1.117,-7.263,28.992,-8.606
-0.357,0.075,1.053,-8.728,30.273,-6.287
-0.373,0.086,1.036,-10.010,25.452,-5.127
-0.386,0.090,1.031,-9.583,18.799,-4.333
-0.395,0.095,1.011,-8.057,14.526,-3.113
-0.405,0.088,1.020,-6.348,10.803,-2.197
-0.424,0.092,1.003,-4.456,9.094,-0.916
-0.444,0.100,0.974,-3.845,7.141,0.122
-0.442,0.090,0.972,-4.150,3.418,-0.488
-0.434,0.090,0.970,-3.967,1.831,-0.732
-0.434,0.087,0.983,-2.441,1.648,-0.427
-0.438,0.093,0.976,-1.160,1.709,0.122
-0.439,0.096,0.941,-0.732,0.305,0.244
-0.434,0.098,0.945,-0.977,-3.357,-0.305
-0.414,0.092,0.947,-0.183,-5.798,-1.160
-0.398,0.091,0.954,2.014,-7.080,-1.160
-0.390,0.090,0.962,4.761,-7.935,-0.366
-0.388,0.083,0.964,7.690,-7.996,0.183
-0.391,0.081,0.946,11.841,-7.935,1.343
-0.391,0.060,0.936,10.559,-7.080,0.977
-0.382,0.059,0.952,5.981,-6.592,0.549
-0.377,0.064,0.965,4.028,-6.470,0.549
-0.360,0.062,0.960,2.258,-5.371,0.183
-0.349,0.063,0.947,1.160,-3.540,0.061
-0.341,0.065,0.917,0.000,-2.197,0.732
-0.340,0.071,0.906,-0.793,-2.563,1.587
-0.337,0.075,0.902,-1.221,-2.747,2.136
-0.336,0.070,0.891,-0.793,-2.258,2.136
-0.340,0.068,0.892,-1.282,-1.038,2.014
-0.339,0.065,0.882,-0.854,0.244,1.953
-0.346,0.068,0.874,-0.977,0.549,2.075
-0.341,0.062,0.886,-2.686,0.427,1.282
-0.340,0.063,0.899,-2.319,0.000,1.160
-0.348,0.059,0.903,-1.404,-0.671,1.709
-0.357,0.061,0.919,-1.221,-2.441,1.892
-0.369,0.058,0.927,-1.343,-3.113,1.770
-0.379,0.051,0.935,-2.136,-2.563,0.732
-0.444,-0.014,0.980,-3.296,-0.305,0.977
-0.354,0.031,0.948,-4.578,3.723,7.446
-0.342,0.120,0.928,-2.808,5.615,10.986
-0.391,0.095,0.948,0.305,2.258,4.883
-0.397,0.036,0.990,-0.488,-1.953,-1.160
-0.422,0.054,0.992,-1.282,-1.709,-0.793
-0.435,-0.001,1.030,-1.587,0.061,3.296
-0.359,0.082,0.995,-1.648,1.831,10.742
-0.372,0.121,0.963,-2.014,1.221,10.742
-0.403,0.073,0.988,-2.136,-2.869,4.333
-0.401,0.027,1.006,-2.747,-5.981,2.563
-0.384,0.041,0.991,-3.174,-6.042,6.653
-0.369,0.067,0.963,-3.418,-5.493,9.949
-0.374,0.073,0.911,-3.418,-5.981,9.277
-0.371,0.051,0.888,-3.723,-8.850,7.568
-0.340,0.071,0.858,-2.380,-11.108,7.935
-0.346,0.105,0.792,-0.305,-12.573,6.531

-0.572,-0.194,2.072,-35.339,11.963,-4.456
-0.558,-0.168,2.161,-42.908,25.452,-12.939
-0.528,-0.184,2.192,-53.467,41.199,-24.902
-0.455,-0.167,2.097,-63.416,53.894,-35.034
-0.369,-0.176,1.855,-74.707,57.373,-44.128
-0.291,-0.208,1.593,-87.524,40.100,-48.218
-0.246,-0.208,1.422,-100.769,10.315,-45.776
-0.144,-0.264,1.238,-110.840,-13.306,-37.903
-0.068,-0.183,1.068,-115.295,-29.297,-20.264
-0.047,-0.104,0.865,-110.657,-35.828,-5.737
-0.067,-0.080,0.615,-106.201,-35.583,-4.395
-0.045,-0.054,0.428,-105.774,-39.307,-4.822
-0.045,-0.049,0.286,-103.882,-46.997,-3.235
-0.073,-0.028,0.152,-98.389,-55.481,-2.869
-0.097,0.005,0.037,-92.407,-66.223,-5.859
-0.152,-0.023,-0.018,-83.435,-76.477,-11.841
-0.168,-0.051,-0.094,-72.021,-79.529,-14.893
-0.188,-0.053,-0.173,-59.143,-75.562,-12.634
-0.203,-0.046,-0.272,-44.312,-67.322,-10.681
-0.219,-0.020,-0.313,-28.992,-65.186,-9.399
-0.232,-0.003,-0.216,-13.245,-69.214,-8.972
-0.238,0.001,-0.128,0.488,-70.923,-9.888
-0.220,-0.003,-0.006,9.399,-71.289,-10.315
-0.221,0.019,0.103,16.357,-66.895,-9.216
-0.229,0.044,0.188,20.264,-57.678,-7.629
-0.234,0.060,0.277,22.095,-47.180,-6.836
-0.217,0.082,0.358,21.973,-34.607,-5.920
-0.195,0.073,0.412,22.949,-20.630,-5.005
-0.194,0.082,0.488,23.682,-8.911,-2.319
-0.217,0.099,0.585,22.949,0.305,1.160
-0.250,0.111,0.644,21.973,10.193,4.272
-0.278,0.107,0.722,20.142,15.503,5.676
-0.309,0.103,0.832,17.944,16.357,5.676
-0.335,0.100,0.898,16.235,19.653,5.493
-0.349,0.090,0.925,13.916,24.353,4.150
-0.360,0.099,0.972,10.620,26.733,2.808
-0.367,0.108,1.008,6.958,27.954,1.709
-0.368,0.102,1.024,4.272,29.785,0.366
-0.370,0.101,1.050,1.770,30.273,-0.061
-0.396,0.126,1.053,0.061,30.457,1.221
-0.406,0.134,1.036,-1.831,29.297,1.343
-0.415,0.126,1.031,-3.174,25.269,0.610
-0.425,0.129,1.021,-3.113,21.912,1.404
-0.440,0.115,1.013,-2.502,18.799,1.709
-0.449,0.127,1.015,-3.540,15.015,2.380
-0.457,0.119,1.001,-3.479,11.169,2.930
-0.460,0.116,0.984,-3.174,7.263,3.296
-0.463,0.117,0.963,-2.502,3.784,4.089
-0.450,0.112,0.947,-0.610,1.099,4.761
-0.442,0.109,0.937,2.747,-0.061,5.737
-0.430,0.106,0.944,6.531,-0.549,6.653
-0.441,0.101,0.946,11.292,-0.488,7.751
-0.460,0.092,0.914,14.282,0.793,8.728
-0.445,0.104,0.880,12.573,0.671,8.789
-0.447,0.104,0.872,10.986,-2.136,8.179
-0.446,0.085,0.890,10.376,-4.089,7.202
-0.437,0.080,0.913,11.108,-5.127,6.714
-0.431,0.084,0.937,13.794,-4.822,6.287
-0.431,0.084,0.944,16.785,-3.967,5.249
-0.455,0.066,0.925,16.785,-3.357,3.418
-0.454,0.067,0.923,9.705,-3.113,0.488
-0.427,0.062,0.941,3.845,-3.418,-2.563
-0.406,0.076,0.964,1.465,-4.639,-4.028
-0.388,0.094,0.965,0.488,-5.615,-4.150
-0.374,0.091,0.948,-0.671,-6.592,-4.333
-0.367,0.098,0.950,-1.465,-8.118,-3.357
-0.357,0.105,0.953,-1.465,-8.240,-2.258
-0.354,0.102,0.946,-0.366,-6.592,-1.709
-0.352,0.101,0.918,0.671,-4.944,-0.671
-0.352,0.098,0.909,2.075,-4.822,0.610
-0.356,0.100,0.912,2.808,-5.920,1.770
-0.356,0.099,0.906,3.723,-6.348,2.747
-0.361,0.098,0.896,4.517,-5.920,3.418
-0.368,0.095,0.878,5.310,-3.967,3.845
-0.382,0.088,0.845,5.188,-2.136,4.272
-0.392,0.077,0.811,4.822,-2.563,4.761
-0.412,0.078,0.838,1.770,-7.080,5.371
-0.414,0.072,0.885,-2.197,-10.620,4.761
-0.419,0.067,0.918,-3.052,-11.169,3.967
-0.431,0.067,0.932,-1.587,-10.620,3.967
-0.434,0.070,0.944,-2.197,-9.705,3.418
-0.437,0.068,0.942,-1.831,-7.202,2.686
-0.442,0.069,0.942,-1.465,-5.676,2.197
-0.444,0.071,0.957,-2.014,-4.822,1.648
-0.451,0.062,0.942,-1.892,-3.906,1.221
-0.448,0.071,0.954,-2.747,-5.859,1.038
-0.450,0.076,0.973,-2.991,-7.874,0.549
-0.449,0.073,0.983,-2.197,-7.507,-0.122
-0.468,0.068,0.992,-2.563,-6.042,-0.488
-0.468,0.021,0.996,-3.662,-4.089,1.404
-0.435,0.054,0.967,-5.188,-3.296,7.385
-0.422,0.117,0.980,-6.775,-4.333,10.437
-0.417,0.113,0.985,-6.714,-6.104,7.996
-0.433,0.075,0.971,-4.578,-7.568,5.920
-0.419,0.083,0.971,-5.798,-9.216,7.996
-0.405,0.091,0.973,-5.432,-9.644,10.986
-0.408,0.079,0.966,-3.967,-9.460,12.939
-0.402,0.082,0.956,-3.296,-10.071,14.587
-0.417,0.083,0.941,-2.380,-11.230,14.893
-0.420,0.062,0.924,-2.380,-11.841,13.428
-0.436,0.041,0.872,-0.854,-12.512,12.451
-0.426,0.045,0.849,-2.441,-14.648,13.062
-0.406,0.067,0.826,-3.174,-16.724,13.123
-0.419,0.069,0.784,0.305,-18.005,11.108
-0.410,0.081,0.747,4.944,-19.592,7.812
-0.446,0.044,0.741,8.911,-20.813,3.418
-0.432,0.011,0.705,7.812,-18.494,1.404
-0.430,0.022,0.696,6.226,-16.785,2.258
-0.443,0.028,0.699,7.812,-15.930,3.113
-0.452,0.018,0.699,9.033,-15.625,2.930
-0.458,0.013,0.700,8.362,-14.221,2.502
-0.474,0.009,0.714,9.705,-13.062,2.319
-0.484,0.005,0.719,9.888,-10.864,1.770
-0.484,0.003,0.716,10.315,-8.667,1.038
-0.486,-0.000,0.733,10.071,-7.019,0.732
-0.490,0.000,0.750,8.118,-3.784,0.305
-0.492,0.015,0.750,5.554,-0.244,0.305
-0.488,0.012,0.771,3.906,1.221,-0.610
-0.483,0.013,0.813,2.441,0.305,-1.587

-0.480,-0.407,1.967,88.196,6.287,50.842
-0.655,-0.274,1.882,98.511,-7.080,61.890
-0.822,-0.421,2.028,85.266,-17.090,49.744
-0.827,-0.437,1.879,64.087,4.211,35.889
-0.987,-0.391,1.733,43.945,30.090,26.550
-0.959,-0.468,1.764,11.719,27.283,7.812
-0.863,-0.431,1.562,-9.521,32.471,-1.770
-0.790,-0.357,1.434,-15.808,34.973,-2.747
-0.694,-0.340,1.454,-10.986,25.940,-2.930
-0.700,-0.260,1.498,2.563,14.954,-4.028
-0.782,-0.350,1.680,16.907,0.305,-8.667
-0.838,-0.471,1.936,23.743,-10.315,-9.583
-0.996,-0.563,2.234,21.423,-7.141,-4.639
-1.040,-0.510,2.344,10.620,8.484,3.662
-1.055,-0.427,2.297,-7.874,22.583,2.808
-1.030,-0.433,2.252,-33.386,25.391,-8.118
-1.002,-0.406,2.169,-57.739,24.902,-17.212
-0.960,-0.374,2.060,-70.740,23.071,-23.010
-0.929,-0.336,1.976,-67.322,11.169,-26.245
-0.921,-0.262,2.014,-54.504,-17.822,-27.771
-0.887,-0.210,2.079,-42.358,-55.237,-31.982
-0.818,-0.212,2.094,-36.743,-88.562,-39.795
-0.721,-0.234,2.005,-38.147,-108.276,-47.363
-0.601,-0.192,1.808,-44.434,-113.220,-51.392
-0.498,-0.161,1.585,-53.162,-110.046,-53.284
-0.330,-0.166,1.357,-62.622,-100.281,-53.223
-0.169,-0.087,1.052,-68.298,-85.449,-47.363
-0.060,-0.007,0.635,-66.406,-73.730,-41.931
0.063,0.047,0.244,-59.814,-73.669,-38.391
0.138,0.150,-0.059,-46.997,-82.520,-37.170
0.167,0.127,-0.283,-32.471,-90.027,-42.480
0.218,0.106,-0.429,-21.423,-91.919,-43.091
0.216,0.172,-0.508,-8.789,-91.980,-34.180
0.197,0.243,-0.500,1.099,-89.172,-23.560
0.157,0.261,-0.465,7.202,-83.069,-17.273
0.123,0.233,-0.357,6.165,-76.904,-12.390
0.081,0.152,-0.265,4.639,-63.843,-8.240
0.054,0.168,-0.229,4.578,-42.969,-1.770
-0.008,0.247,-0.198,4.456,-23.926,-0.732
-0.073,0.197,-0.170,5.798,-8.667,-10.132
-0.105,0.086,-0.120,7.812,-2.930,-15.564
-0.132,0.050,0.036,8.362,-3.601,-9.949
-0.168,0.038,0.221,10.864,-2.075,-0.610
-0.234,0.026,0.360,15.686,4.333,7.629
-0.272,-0.028,0.495,18.433,11.719,14.465
-0.346,0.006,0.608,19.897,17.212,21.790
-0.420,0.012,0.695,19.287,18.433,23.315
-0.476,-0.005,0.759,15.747,15.198,19.775
-0.523,-0.044,0.868,8.423,8.362,15.381
-0.566,-0.064,0.962,2.075,6.958,12.512
-0.597,-0.062,1.009,-3.174,11.292,11.047
-0.604,-0.061,1.035,-6.104,17.151,9.094
-0.630,-0.062,1.059,-6.653,23.376,7.812
-0.669,-0.054,1.029,-7.812,30.762,6.226
-0.682,-0.070,1.041,-7.324,33.569,2.625
-0.693,-0.067,1.018,-6.897,37.476,-0.366
-0.696,-0.046,0.986,-4.761,39.734,-2.258
-0.684,-0.023,0.950,-1.221,39.185,-4.028
-0.686,-0.009,0.908,1.770,35.095,-6.165
-0.668,0.003,0.896,2.747,26.978,-7.935
-0.658,0.020,0.873,4.639,20.508,-8.179
-0.651,0.023,0.862,6.775,14.587,-8.118
-0.636,0.022,0.870,5.981,9.216,-8.362
-0.623,0.017,0.885,5.554,4.150,-8.301
-0.614,0.021,0.915,4.700,-0.122,-7.446
-0.593,0.010,0.908,2.380,-0.854,-6.775
-0.577,0.017,0.882,0.244,0.305,-5.188
-0.570,0.027,0.880,-1.831,-1.831,-3.296
-0.556,0.017,0.889,-3.784,-3.906,-2.625
-0.551,0.029,0.899,-4.761,-3.662,-1.587
-0.551,0.036,0.877,-4.028,-1.526,-0.671
-0.548,0.038,0.862,-2.686,-0.610,-0.610
-0.536,0.039,0.855,-1.465,-1.099,-0.610
-0.526,0.042,0.854,0.244,-1.160,-0.366
-0.519,0.046,0.852,2.502,-0.793,0.366
-0.520,0.045,0.835,4.822,0.061,1.465
-0.523,0.038,0.823,6.592,0.610,2.075
-0.519,0.025,0.810,7.812,0.549,1.953
-0.518,0.016,0.802,9.277,-0.244,2.380
-0.519,0.014,0.797,8.484,-0.305,2.930
-0.518,0.016,0.789,6.958,0.610,3.418
-0.519,0.011,0.784,6.470,1.648,3.296
-0.518,0.006,0.788,5.737,2.075,2.869
-0.521,0.007,0.795,4.395,2.136,2.991
-0.526,0.008,0.793,3.662,2.747,3.235
-0.526,0.012,0.792,3.174,3.113,2.686
-0.516,0.016,0.810,2.563,2.075,2.014
-0.512,0.008,0.833,3.113,0.549,1.587
-0.518,0.005,0.844,4.211,0.671,1.953
-0.517,0.008,0.826,4.639,1.648,2.747
-0.514,0.002,0.818,4.822,1.587,3.174
-0.516,-0.002,0.842,4.456,-0.366,3.479
-0.518,-0.008,0.854,4.028,-1.099,3.723
-0.520,-0.010,0.848,3.174,0.000,4.028
-0.531,-0.001,0.838,1.465,0.427,4.761
-0.534,-0.003,0.844,-0.305,-1.343,4.578
-0.539,-0.006,0.869,-0.549,-3.357,4.150
-0.541,-0.001,0.870,-0.183,-3.662,4.211
-0.550,-0.006,0.867,0.854,-3.235,3.784
-0.553,-0.006,0.850,1.282,-2.747,3.357
-0.557,-0.014,0.840,1.221,-2.930,2.502
-0.551,-0.007,0.841,-0.244,-3.601,2.075
-0.547,-0.003,0.839,-0.305,-3.174,1.709
-0.542,-0.007,0.824,0.610,-1.770,1.404
-0.542,-0.004,0.808,1.465,0.061,1.587
-0.543,-0.000,0.784,2.258,0.977,2.197
-0.542,-0.001,0.777,1.770,-0.305,2.258
-0.536,-0.002,0.790,-0.244,-1.404,2.319
-0.545,-0.012,0.801,0.793,-2.075,2.563
-0.549,-0.008,0.807,2.625,-2.502,3.235
-0.553,-0.017,0.804,4.089,-2.258,2.930
-0.556,-0.032,0.788,5.615,-1.526,2.502
-0.550,-0.037,0.781,4.028,-1.770,2.502
-0.549,-0.030,0.809,0.610,-3.052,2.197
-0.540,-0.032,0.806,0.854,-2.075,1.648
-0.535,-0.037,0.794,1.770,-0.610,1.221
-0.538,-0.033,0.794,1.892,-0.366,1.099
-0.543,-0.034,0.783,2.686,-1.038,0.549
-0.538,-0.037,0.789,2.747,-2.563,-0.244

-0.524,-0.537,1.826,56.946,48.340,60.547
-0.503,-0.291,1.629,50.476,56.335,59.875
-0.587,-0.446,1.666,39.978,43.335,37.598
-0.598,-0.515,1.712,20.874,25.757,22.888
-0.520,-0.501,1.611,6.409,24.658,18.433
-0.587,-0.374,1.528,-5.798,20.386,17.822
-0.554,-0.490,1.551,-15.808,2.625,13.123
-0.523,-0.411,1.428,-18.005,8.545,12.390
-0.544,-0.405,1.325,-15.076,8.972,9.277
-0.621,-0.441,1.345,-9.888,6.775,3.296
-0.471,-0.563,1.348,-4.089,8.240,2.014
-0.482,-0.373,1.352,5.310,12.207,10.132
-0.600,-0.382,1.538,13.794,-4.211,6.226
-0.635,-0.489,1.640,15.198,-8.667,-5.188
-0.647,-0.511,1.801,9.766,-13.977,-5.676
-0.577,-0.508,1.773,3.662,-9.766,-5.005
-0.725,-0.541,1.800,-2.991,-5.676,-4.333
-0.681,-0.544,1.727,-17.395,-2.808,-5.249
-0.680,-0.506,1.613,-27.039,-1.099,-5.615
-0.700,-0.518,1.636,-34.485,-7.263,-8.362
-0.706,-0.528,1.646,-40.405,-9.949,-12.451
-0.735,-0.528,1.635,-42.969,-9.460,-16.296
-0.739,-0.523,1.617,-44.678,-13.306,-21.423
-0.749,-0.503,1.643,-46.326,-24.292,-27.527
-0.736,-0.470,1.677,-46.021,-38.574,-34.790
-0.692,-0.438,1.712,-46.875,-53.223,-44.128
-0.641,-0.398,1.731,-49.744,-65.491,-53.833
-0.536,-0.357,1.706,-54.871,-73.425,-63.354
-0.452,-0.306,1.626,-60.547,-76.233,-70.862
-0.395,-0.310,1.548,-68.909,-75.256,-74.341
-0.276,-0.259,1.420,-80.078,-67.383,-70.984
-0.196,-0.162,1.220,-86.426,-54.504,-65.369
-0.106,-0.107,1.013,-89.844,-39.673,-61.401
-0.042,-0.032,0.683,-89.050,-25.452,-56.885
0.029,0.020,0.386,-86.731,-25.452,-52.185
0.087,0.073,0.182,-86.609,-38.147,-49.744
0.098,0.094,0.089,-81.238,-50.781,-47.119
0.089,0.125,-0.021,-64.575,-56.763,-39.795
0.065,0.151,-0.143,-47.546,-58.655,-30.579
0.026,0.160,-0.204,-30.945,-61.890,-23.437
-0.021,0.148,-0.165,-15.259,-66.406,-17.944
-0.073,0.115,-0.086,-2.258,-66.711,-13.855
-0.117,0.108,-0.021,4.456,-59.021,-10.620
-0.161,0.097,0.024,8.240,-52.185,-8.362
-0.190,0.081,0.061,9.583,-45.776,-7.568
-0.203,0.076,0.122,5.676,-38.574,-7.629
-0.212,0.087,0.192,4.150,-30.823,-7.019
-0.215,0.079,0.203,5.127,-21.301,-6.409
-0.218,0.083,0.232,5.249,-13.245,-4.578
-0.225,0.069,0.309,6.042,-8.484,-2.625
-0.237,0.045,0.377,8.240,-3.357,-0.488
-0.267,0.029,0.445,10.803,2.502,3.052
-0.314,0.016,0.513,12.695,7.141,6.897
-0.353,-0.008,0.594,13.611,9.399,9.460
-0.397,-0.039,0.708,14.648,7.935,10.803
-0.455,-0.052,0.833,14.160,8.057,12.451
-0.511,-0.064,0.927,12.512,13.000,12.634
-0.547,-0.092,0.945,10.559,21.545,9.399
-0.577,-0.084,0.947,6.226,28.320,5.920
-0.584,-0.096,0.971,0.854,29.358,1.160
-0.581,-0.081,1.012,-2.747,28.503,-2.563
-0.569,-0.064,1.011,-4.089,29.419,-4.639
-0.570,-0.043,1.010,-4.944,29.297,-6.226
-0.571,-0.019,1.001,-4.456,26.489,-6.165
-0.571,-0.022,1.005,-3.357,22.156,-6.836
-0.570,-0.019,1.031,-2.258,17.395,-7.324
-0.573,-0.019,1.032,-0.854,14.160,-6.897
-0.579,-0.019,1.033,-0.732,11.230,-6.348
-0.586,-0.016,0.996,-1.404,9.460,-6.042
-0.578,-0.002,0.959,-3.174,7.629,-6.348
-0.560,0.007,0.959,-5.310,4.395,-7.446
-0.543,0.020,0.969,-4.395,1.526,-7.568
-0.528,0.032,0.950,-2.075,0.427,-6.836
-0.514,0.037,0.929,0.183,0.000,-5.493
-0.507,0.041,0.896,2.441,-0.244,-3.723
-0.504,0.048,0.885,3.845,-2.319,-2.319
-0.499,0.049,0.901,2.686,-5.432,-1.648
-0.488,0.047,0.890,2.441,-7.141,-1.099
-0.473,0.046,0.870,3.113,-6.897,-0.183
-0.461,0.042,0.861,3.540,-6.287,0.793
-0.461,0.039,0.855,4.456,-5.737,2.197
-0.463,0.041,0.836,3.784,-4.517,2.991
-0.453,0.041,0.805,2.808,-3.601,3.113
-0.446,0.025,0.803,2.686,-3.967,3.235
-0.439,0.018,0.833,1.160,-4.761,3.601
-0.436,0.012,0.834,1.038,-4.272,4.578
-0.445,0.007,0.825,2.380,-3.601,5.676
-0.445,-0.000,0.810,1.831,-2.991,6.348
-0.443,-0.008,0.803,1.953,-2.258,6.653
-0.453,-0.018,0.818,1.831,-1.770,7.080
-0.455,-0.017,0.814,1.404,-1.648,7.446
-0.459,-0.022,0.813,1.282,-2.686,8.057
-0.464,-0.023,0.818,1.404,-3.540,8.362
-0.467,-0.026,0.829,1.526,-3.357,8.789
-0.472,-0.032,0.843,1.099,-2.808,8.850
-0.484,-0.034,0.844,1.343,-1.465,8.972
-0.492,-0.032,0.851,0.916,-0.671,8.972
-0.505,-0.044,0.849,1.099,-0.305,8.301
-0.512,-0.045,0.854,0.061,0.183,7.202
-0.518,-0.048,0.873,-1.160,0.549,5.676
-0.521,-0.048,0.879,-1.831,0.427,4.028
-0.518,-0.047,0.875,-2.502,0.427,2.625
-0.512,-0.045,0.867,-3.418,1.099,1.221
-0.511,-0.035,0.875,-4.089,1.038,0.610
-0.505,-0.030,0.863,-3.845,0.793,0.183
-0.506,-0.025,0.866,-3.601,-0.305,-0.122
-0.509,-0.025,0.870,-2.869,-1.099,-0.549
-0.510,-0.021,0.870,-1.770,-0.671,-0.610
-0.509,-0.020,0.860,-1.587,-0.183,-0.916
-0.507,-0.014,0.864,-2.136,-1.343,-0.732
-0.506,-0.012,0.874,-2.991,-2.808,-0.305
-0.502,-0.005,0.886,-3.357,-3.174,0.000
-0.505,-0.014,0.868,-2.808,-2.747,0.305
-0.506,-0.010,0.866,-3.906,-2.625,0.671
-0.506,-0.005,0.876,-5.249,-2.747,0.854
-0.505,-0.008,0.881,-5.188,-2.014,0.549
-0.500,-0.010,0.879,-5.249,-1.160,0.244
-0.493,-0.008,0.875,-6.042,-0.366,0.183
-0.487,-0.010,0.878,-6.958,-0.061,0.000

-0.513,-0.448,1.788,44.556,140.808,25.391
-0.485,-0.488,1.844,58.411,114.624,5.920
-0.422,-0.350,1.828,67.078,89.355,-2.747
-0.379,-0.285,1.944,66.895,58.105,-9.338
-0.479,-0.281,2.174,59.509,38.513,-15.442
-0.266,-0.433,1.784,49.927,48.096,-20.020
-0.333,-0.169,2.058,37.415,30.945,-1.343
-0.327,-0.212,2.191,13.489,18.250,-2.502
-0.228,-0.325,1.888,2.136,44.312,-1.587
-0.309,-0.187,1.631,-5.249,57.861,7.996
-0.202,-0.197,1.566,-11.108,40.588,14.160
-0.223,-0.164,1.421,-5.249,25.940,9.338
-0.265,-0.264,1.453,3.174,3.662,0.305
-0.188,-0.301,1.591,7.324,-18.005,-3.723
-0.356,-0.338,1.816,14.587,-29.114,-2.441
-0.400,-0.363,1.873,15.259,-25.452,0.916
-0.462,-0.429,1.897,11.108,-19.531,0.916
-0.481,-0.359,1.901,-0.610,-20.630,1.343
-0.452,-0.307,1.850,-16.235,-21.301,-3.662
-0.428,-0.315,1.836,-31.860,-21.851,-10.742
-0.392,-0.298,1.828,-46.143,-19.775,-14.099
-0.376,-0.275,1.786,-56.030,-14.465,-15.320
-0.367,-0.254,1.721,-62.073,-11.230,-16.113
-0.349,-0.223,1.637,-65.002,-14.465,-17.761
-0.333,-0.185,1.566,-63.110,-27.039,-20.752
-0.297,-0.149,1.516,-57.373,-46.875,-25.085
-0.245,-0.125,1.472,-51.270,-68.848,-30.640
-0.186,-0.128,1.444,-48.340,-88.074,-36.011
-0.184,-0.125,1.396,-49.316,-98.938,-39.429
-0.101,-0.156,1.233,-55.481,-100.586,-42.114
-0.090,-0.122,1.093,-63.110,-99.060,-42.114
-0.021,-0.113,0.932,-72.571,-94.666,-40.649
0.008,-0.123,0.727,-75.745,-84.778,-39.551
0.032,-0.074,0.484,-75.684,-76.782,-34.912
0.029,-0.037,0.312,-71.960,-76.599,-30.701
0.020,-0.008,0.200,-65.186,-77.148,-28.015
0.001,0.005,0.074,-52.795,-72.266,-25.879
-0.008,0.016,0.007,-39.185,-66.772,-24.414
-0.028,0.038,0.014,-26.428,-62.500,-22.522
-0.041,0.060,0.052,-15.869,-55.847,-19.714
-0.065,0.074,0.114,-10.498,-45.837,-16.357
-0.108,0.080,0.160,-7.080,-32.776,-12.817
-0.136,0.074,0.170,-6.165,-19.409,-9.766
-0.168,0.074,0.179,-5.920,-9.705,-7.141
-0.189,0.088,0.182,-5.859,-3.967,-4.578
-0.210,0.090,0.244,-6.287,-2.808,-3.418
-0.208,0.089,0.267,-5.676,0.122,-3.052
-0.227,0.094,0.325,-2.869,2.869,-2.380
-0.239,0.074,0.382,0.000,5.676,-1.587
-0.262,0.078,0.442,3.174,10.376,-0.061
-0.271,0.054,0.510,6.348,12.695,1.343
-0.297,0.042,0.627,10.498,13.306,3.113
-0.333,0.049,0.732,11.963,15.747,4.822
-0.347,0.032,0.809,11.292,20.020,4.639
-0.372,0.029,0.883,9.216,23.987,4.089
-0.386,0.034,0.941,6.348,28.320,3.418
-0.395,0.024,0.977,2.747,31.006,1.648
-0.398,0.027,1.013,-0.610,30.518,0.000
-0.399,0.030,1.062,-3.662,27.039,-1.404
-0.402,0.041,1.077,-5.615,24.597,-2.014
-0.384,0.040,1.055,-6.409,23.193,-2.747
-0.386,0.051,1.061,-4.883,19.104,-2.930
-0.379,0.053,1.060,-2.625,14.343,-2.869
-0.385,0.059,1.061,-0.061,9.277,-2.808
-0.385,0.044,1.054,1.831,5.066,-2.502
-0.382,0.040,1.054,3.357,1.160,-2.380
-0.392,0.032,1.057,4.944,-2.197,-1.587
-0.395,0.025,1.059,4.761,-4.089,-0.793
-0.404,0.015,1.048,3.906,-4.333,0.061
-0.410,0.011,1.027,3.174,-3.418,1.038
-0.410,0.012,0.992,2.563,-2.380,1.282
-0.414,0.011,0.971,2.258,-1.953,1.404
-0.406,0.010,0.942,2.197,-1.648,0.610
-0.401,0.015,0.917,1.648,-0.977,-0.061
-0.385,0.018,0.881,1.343,-0.305,-0.916
-0.371,0.022,0.862,2.075,-0.671,-1.404
-0.362,0.024,0.858,3.418,-2.258,-1.343
-0.356,0.026,0.866,2.747,-3.113,-0.610
-0.358,0.025,0.874,2.930,-2.930,0.183
-0.361,0.027,0.878,2.319,-2.258,0.549
-0.363,0.026,0.877,1.648,-1.587,0.305
-0.358,0.029,0.873,0.793,-1.038,0.000
-0.348,0.033,0.869,0.000,-1.160,-0.244
-0.344,0.037,0.870,0.305,-1.404,0.061
-0.345,0.038,0.881,1.099,-2.136,0.427
-0.348,0.040,0.899,1.343,-2.930,0.610
-0.345,0.037,0.918,0.854,-2.686,0.488
-0.339,0.038,0.919,0.000,-0.549,0.488
-0.335,0.041,0.919,-0.488,0.793,0.793
-0.337,0.039,0.944,-0.916,0.244,1.282
-0.341,0.036,0.951,-0.610,0.427,2.014
-0.347,0.034,0.953,-0.732,0.671,2.380
-0.353,0.031,0.962,-1.343,0.916,2.625
-0.365,0.027,0.963,-1.526,1.404,2.625
-0.366,0.021,0.959,-2.014,1.831,2.136
-0.372,0.018,0.956,-2.319,2.014,1.770
-0.376,0.018,0.954,-2.686,2.014,1.709
-0.380,0.015,0.952,-2.808,1.892,1.404
-0.383,0.012,0.954,-2.258,1.709,1.160
-0.386,0.015,0.953,-1.648,1.770,1.160
-0.388,0.018,0.941,-0.977,1.526,0.916
-0.402,0.027,0.950,-0.305,-0.366,0.366
-0.374,0.007,0.936,-0.122,-3.052,-0.549
-0.389,-0.001,0.975,-0.183,-5.066,-1.099
-0.388,0.012,0.993,-1.221,-5.615,-0.427
-0.382,-0.001,0.971,-1.526,-3.723,-0.610
-0.385,0.015,0.965,-2.136,-3.479,-0.305
-0.381,0.011,0.976,-2.563,-4.822,-0.427
-0.380,0.014,0.976,-2.686,-6.042,-0.793
-0.386,0.011,0.972,-3.174,-6.287,-0.854
-0.390,0.008,0.965,-3.357,-6.165,-1.099
-0.386,0.012,0.937,-4.028,-4.883,-1.465
-0.382,0.016,0.903,-4.883,-4.333,-1.831
-0.376,0.020,0.873,-5.432,-5.310,-2.136
-0.363,0.021,0.860,-5.859,-6.348,-2.747
-0.360,0.021,0.837,-5.310,-6.165,-3.235
-0.352,0.026,0.805,-4.883,-5.005,-3.418
-0.338,0.025,0.782,-4.395,-4.395,-3.845
-0.321,0.024,0.758,-3.357,-3.601,-4.028

-0.291,-0.405,2.072,31.860,135.376,29.724
-0.448,-0.476,2.206,40.527,115.479,8.484
-0.072,-0.177,1.232,53.955,97.046,-9.766
-0.280,-0.348,2.657,52.368,-25.024,-2.747
-0.294,-0.083,2.202,53.711,6.042,-9.277
-0.105,-0.215,1.983,39.063,21.545,-6.470
-0.097,-0.183,1.989,22.156,7.019,-12.390
-0.198,-0.078,2.120,2.563,-7.629,-2.747
-0.193,-0.160,1.882,-10.315,0.854,-1.709
-0.276,-0.237,1.832,-18.372,-5.981,1.770
-0.315,-0.230,1.740,-19.775,-12.634,10.071
-0.385,-0.269,1.681,-15.259,-18.555,13.550
-0.422,-0.321,1.643,-11.475,-25.635,11.841
-0.391,-0.409,1.623,-8.972,-31.494,12.024
-0.471,-0.330,1.491,-4.211,-29.358,16.418
-0.466,-0.314,1.392,-4.639,-32.898,11.353
-0.448,-0.334,1.401,-7.263,-41.382,1.648
-0.397,-0.318,1.405,-11.536,-44.250,-5.432
-0.384,-0.290,1.369,-14.709,-40.955,-9.399
-0.347,-0.292,1.344,-17.944,-39.612,-13.306
-0.341,-0.268,1.339,-18.677,-40.344,-15.625
-0.328,-0.264,1.354,-15.930,-43.884,-17.273
-0.326,-0.253,1.419,-12.512,-50.598,-18.311
-0.327,-0.260,1.524,-10.193,-58.960,-19.897
-0.346,-0.261,1.612,-9.216,-64.636,-21.545
-0.342,-0.256,1.665,-12.451,-67.200,-23.926
-0.363,-0.252,1.682,-19.287,-69.458,-27.893
-0.344,-0.234,1.633,-29.358,-71.594,-32.288
-0.314,-0.221,1.537,-41.260,-75.500,-37.354
-0.304,-0.206,1.438,-53.894,-81.055,-42.053
-0.229,-0.223,1.284,-65.063,-84.045,-46.265
-0.189,-0.226,1.134,-70.801,-83.130,-46.875
-0.157,-0.152,0.954,-71.411,-77.454,-43.335
-0.137,-0.130,0.767,-69.519,-73.853,-43.396
-0.146,-0.165,0.685,-67.566,-73.364,-44.922
-0.055,-0.121,0.576,-62.805,-68.115,-39.978
-0.030,-0.022,0.420,-55.176,-59.875,-34.607
-0.030,-0.030,0.328,-48.401,-58.044,-36.194
-0.045,-0.016,0.287,-42.175,-60.425,-33.997
-0.064,0.014,0.287,-38.086,-60.425,-28.687
-0.102,0.009,0.250,-32.349,-52.734,-24.780
-0.151,0.002,0.171,-25.269,-42.786,-21.484
-0.193,0.021,0.134,-24.353,-37.231,-19.043
-0.212,0.040,0.162,-26.062,-36.987,-18.005
-0.223,0.046,0.196,-24.414,-34.790,-18.555
-0.224,0.057,0.193,-20.508,-29.663,-18.433
-0.231,0.063,0.214,-15.747,-24.780,-17.578
-0.242,0.079,0.240,-10.742,-19.775,-15.991
-0.260,0.091,0.258,-6.470,-14.221,-14.648
-0.257,0.010,0.353,-5.127,-8.667,-12.878
-0.229,0.138,0.350,-2.319,0.488,-5.554
-0.233,0.147,0.357,1.282,6.104,-4.395
-0.247,0.094,0.485,2.502,5.676,-6.897
-0.252,0.091,0.587,2.808,10.315,-4.211
-0.269,0.094,0.627,4.395,19.531,-0.793
-0.303,0.098,0.687,5.371,24.536,2.930
-0.337,0.078,0.763,5.493,27.039,5.676
-0.366,0.063,0.834,5.920,29.297,6.775
-0.391,0.053,0.902,5.859,29.907,7.263
-0.419,0.048,0.968,5.005,28.809,6.836
-0.443,0.038,0.996,3.784,27.527,5.371
-0.449,0.020,1.008,2.380,25.024,2.930
-0.453,0.022,1.038,1.404,21.179,0.610
-0.449,0.017,1.062,0.305,18.372,-1.160
-0.444,0.020,1.051,-0.671,17.273,-2.319
-0.442,0.028,1.051,-1.648,15.259,-2.686
-0.439,0.028,1.048,-2.502,13.000,-3.174
-0.437,0.038,1.045,-2.991,9.949,-3.052
-0.434,0.034,1.041,-3.235,7.446,-3.052
-0.431,0.039,1.010,-2.930,6.226,-2.747
-0.431,0.045,0.984,-2.502,4.639,-2.441
-0.425,0.043,0.992,-1.892,2.380,-2.747
-0.425,0.049,0.990,-0.916,1.343,-2.686
-0.418,0.052,0.971,-0.854,1.404,-2.625
-0.408,0.052,0.946,-0.305,1.099,-2.747
-0.399,0.048,0.914,0.793,0.977,-2.502
-0.398,0.044,0.912,2.075,0.000,-1.831
-0.395,0.041,0.928,3.357,-0.549,-1.099
-0.400,0.045,0.929,4.150,0.977,-0.305
-0.404,0.044,0.911,4.395,3.296,-0.183
-0.404,0.039,0.908,3.967,4.578,-0.977
-0.396,0.032,0.894,3.479,6.287,-1.770
-0.389,0.034,0.885,3.357,7.446,-1.953
-0.394,0.036,0.891,3.784,6.897,-2.014
-0.406,0.019,0.891,5.615,7.507,-2.747
-0.374,-0.023,0.880,7.141,10.193,-0.488
-0.374,0.052,0.848,7.141,11.902,4.211
-0.376,0.013,0.852,7.080,8.728,-0.061
-0.346,0.002,0.886,7.141,6.958,0.061
-0.351,0.023,0.899,11.902,8.911,5.432
-0.343,0.026,0.895,19.775,11.230,9.033
-0.339,0.015,0.890,23.376,11.902,9.827
-0.347,0.000,0.911,21.118,12.268,9.460
-0.360,0.013,0.924,17.761,12.146,10.071
-0.366,0.016,0.916,14.526,12.390,8.484
-0.369,-0.015,0.899,9.216,11.780,4.822
-0.385,-0.019,0.911,4.395,9.399,2.747
-0.373,-0.011,0.925,0.793,8.057,2.258
-0.365,-0.009,0.926,0.549,8.789,1.953
-0.353,0.025,0.911,-0.183,8.789,0.488
-0.358,-0.003,0.922,-1.038,6.653,-3.540
-0.354,-0.007,0.939,0.061,5.859,-5.188
-0.366,-0.004,0.929,2.441,7.019,-4.822
-0.359,-0.004,0.927,1.465,7.324,-5.493
-0.357,-0.031,0.936,0.427,7.141,-5.493
-0.349,-0.009,0.907,1.343,8.850,-2.747
-0.345,0.005,0.906,1.709,8.362,-0.305
-0.352,-0.004,0.927,1.465,5.554,0.793
-0.363,-0.016,0.910,1.282,4.700,2.136
-0.363,-0.000,0.914,0.122,2.747,3.052
-0.367,-0.005,0.928,-0.305,1.038,3.052
-0.357,0.003,0.941,-0.488,1.465,2.808
-0.359,0.027,0.925,0.000,1.892,0.977
-0.359,-0.009,0.915,-1.404,2.075,-3.174
-0.348,-0.004,0.905,-2.991,2.197,-3.723
-0.352,0.008,0.925,-3.052,1.892,-2.747
-0.357,-0.005,0.937,-1.709,1.953,-3.174
-0.356,-0.009,0.931,-1.282,2.869,-3.479
-0.362,-0.034,0.924,-0.793,2.869,-2.991

-0.568,-0.711,2.016,82.886,35.828,33.264
-0.275,-0.782,2.113,67.993,35.461,18.799
-0.263,-0.402,1.973,54.382,39.307,18.372
-0.258,-0.626,2.379,24.536,6.714,12.756
-0.238,-0.466,1.969,9.766,40.405,14.221
-0.266,-0.541,1.921,-4.761,37.354,17.517
-0.267,-0.524,1.951,-15.076,23.926,18.005
-0.357,-0.468,1.875,-16.174,22.034,21.240
-0.420,-0.551,1.829,-17.151,13.916,16.968
-0.457,-0.520,1.802,-17.273,3.723,17.029
-0.485,-0.491,1.776,-12.390,-5.798,15.930
-0.569,-0.514,1.759,-6.531,-16.296,8.850
-0.588,-0.533,1.710,-7.324,-25.208,1.038
-0.577,-0.542,1.665,-11.963,-31.555,-7.751
-0.541,-0.512,1.643,-15.503,-33.569,-15.869
-0.482,-0.467,1.613,-19.104,-30.518,-21.606
-0.416,-0.416,1.642,-24.353,-26.978,-25.269
-0.369,-0.373,1.696,-29.480,-25.208,-26.794
-0.332,-0.311,1.724,-34.424,-24.475,-27.161
-0.302,-0.278,1.749,-38.208,-29.907,-28.442
-0.258,-0.248,1.752,-39.368,-42.419,-30.029
-0.240,-0.228,1.758,-40.894,-60.181,-31.372
-0.199,-0.232,1.713,-43.030,-77.209,-33.203
-0.211,-0.215,1.629,-45.349,-91.187,-34.119
-0.165,-0.222,1.527,-51.636,-103.943,-36.377
-0.133,-0.215,1.409,-57.983,-111.145,-39.368
-0.087,-0.197,1.244,-62.500,-111.511,-40.466
-0.058,-0.192,1.035,-65.369,-107.544,-40.894
-0.017,-0.177,0.793,-65.430,-100.708,-40.588
0.006,-0.141,0.581,-62.622,-96.252,-39.612
0.036,-0.107,0.402,-56.458,-94.543,-37.598
0.035,-0.077,0.253,-47.668,-92.346,-35.950
0.039,-0.039,0.138,-39.795,-88.867,-34.546
0.043,-0.011,0.056,-32.166,-85.876,-33.081
0.026,0.001,0.017,-25.024,-83.801,-30.396
-0.001,0.009,0.006,-21.301,-80.139,-26.001
-0.037,-0.005,0.035,-20.325,-74.219,-21.423
-0.081,-0.006,0.022,-18.127,-62.866,-16.968
-0.116,0.005,0.001,-15.564,-51.453,-13.367
-0.141,0.012,0.007,-13.855,-42.786,-11.780
-0.166,0.023,0.019,-9.155,-35.400,-10.681
-0.179,0.036,0.057,-2.625,-29.968,-10.193
-0.186,0.043,0.080,3.784,-24.658,-10.010
-0.191,0.040,0.161,7.874,-21.179,-8.911
-0.196,0.019,0.236,10.315,-15.991,-6.775
-0.216,0.013,0.319,13.733,-8.606,-2.380
-0.262,-0.006,0.414,15.015,-2.136,2.380
-0.317,-0.015,0.495,14.221,6.775,7.690
-0.356,-0.027,0.546,11.597,15.930,10.803
-0.399,-0.049,0.636,7.874,20.325,11.169
-0.441,-0.047,0.763,3.296,22.034,11.597
-0.480,-0.065,0.858,1.160,25.818,10.437
-0.504,-0.078,0.928,-0.366,31.250,7.935
-0.536,-0.075,0.954,-2.258,36.804,5.066
-0.536,-0.084,0.979,-6.592,39.001,1.099
-0.520,-0.071,1.050,-11.292,37.048,-1.953
-0.507,-0.056,1.095,-12.939,36.560,-3.662
-0.494,-0.047,1.108,-12.207,35.767,-5.188
-0.481,-0.042,1.125,-10.803,33.020,-5.554
-0.471,-0.039,1.100,-8.423,31.128,-4.456
-0.474,-0.024,1.053,-7.080,28.809,-3.418
-0.471,-0.027,1.054,-7.812,22.461,-3.296
-0.457,-0.020,1.061,-8.362,15.625,-2.991
-0.455,-0.022,1.071,-6.897,9.521,-2.380
-0.450,-0.027,1.064,-4.822,6.409,-1.831
-0.444,-0.032,1.036,-2.319,4.456,-1.282
-0.453,-0.029,1.010,-0.977,2.136,-0.244
-0.440,-0.037,1.012,-2.869,-0.488,-0.122
-0.427,-0.051,1.013,-3.174,-1.709,-0.244
-0.430,-0.052,1.010,-2.075,-2.258,0.305
-0.427,-0.048,0.997,-1.343,-2.380,0.977
-0.425,-0.055,0.964,0.610,-2.319,0.916
-0.434,-0.056,0.919,1.892,-2.808,1.343
-0.439,-0.061,0.881,0.000,-3.723,0.549
-0.421,-0.057,0.898,-4.517,-6.409,-1.343
-0.411,-0.055,0.885,-4.456,-6.775,-2.014
-0.404,-0.049,0.862,-3.113,-5.859,-2.502
-0.395,-0.044,0.853,-2.441,-5.981,-2.930
-0.399,-0.042,0.845,-1.404,-5.371,-2.808
-0.403,-0.036,0.820,-0.916,-3.784,-2.686
-0.401,-0.031,0.818,-2.197,-3.296,-2.747
-0.397,-0.029,0.825,-3.235,-3.479,-2.747
-0.391,-0.026,0.842,-2.625,-3.296,-2.747
-0.392,-0.023,0.852,-0.977,-2.258,-2.380
-0.394,-0.024,0.850,0.854,-0.610,-2.197
-0.395,-0.025,0.833,1.038,0.854,-2.136
-0.384,-0.021,0.845,-1.465,0.305,-2.319
-0.377,-0.006,0.874,-3.357,-0.671,-2.075
-0.372,-0.005,0.883,-2.625,0.000,-1.526
-0.374,-0.011,0.896,-0.793,1.099,-0.549
-0.384,-0.012,0.906,0.977,2.014,0.610
-0.403,-0.010,0.887,1.587,3.296,1.282
-0.398,-0.017,0.905,-1.526,1.953,0.854
-0.401,-0.013,0.930,-2.869,0.488,0.854
-0.403,-0.013,0.936,-2.258,0.488,1.282
-0.408,-0.018,0.939,-1.465,0.793,1.709
-0.418,-0.023,0.935,-0.183,1.465,2.136
-0.428,-0.027,0.915,1.648,2.380,2.625
-0.436,-0.036,0.883,2.686,2.441,2.930
-0.439,-0.038,0.888,0.305,0.977,2.991
-0.437,-0.035,0.909,-1.526,-0.122,2.991
-0.443,-0.042,0.916,-0.854,0.000,3.113
-0.446,-0.046,0.915,-0.610,0.488,3.052
-0.457,-0.058,0.903,0.549,0.732,2.991
-0.453,-0.053,0.889,0.000,0.488,2.625
-0.450,-0.056,0.906,-1.404,-1.526,1.892
-0.441,-0.053,0.920,-1.709,-2.563,1.160
-0.437,-0.051,0.920,-1.038,-2.625,0.732
-0.432,-0.055,0.917,-0.244,-2.930,-0.061
-0.423,-0.057,0.912,0.916,-2.930,-0.549
-0.414,-0.054,0.905,2.197,-2.197,-0.671
-0.418,-0.050,0.892,2.930,-1.160,-0.610
-0.412,-0.051,0.874,0.916,-0.305,-0.671
-0.407,-0.052,0.887,-1.343,-1.099,-1.099
-0.402,-0.048,0.902,-2.930,-2.075,-1.282
-0.396,-0.051,0.896,-1.953,-0.977,-1.282
-0.401,-0.051,0.884,-0.854,0.000,-1.099
-0.399,-0.046,0.878,-1.343,-0.488,-1.099
-0.392,-0.040,0.879,-2.380,-1.953,-1.160

-0.647,-0.537,1.614,53.833,83.618,42.053
-0.763,-0.490,1.749,61.523,58.472,33.142
-0.675,-0.520,1.854,60.608,36.316,13.062
-0.594,-0.502,1.862,56.519,30.640,-1.038
-0.539,-0.385,1.802,45.715,31.494,-4.883
-0.472,-0.412,1.833,25.574,22.583,-11.230
-0.386,-0.388,1.756,7.446,19.409,-11.841
-0.362,-0.369,1.597,-4.333,20.874,-6.042
-0.407,-0.338,1.519,-14.526,13.855,0.610
-0.445,-0.347,1.449,-21.057,6.531,5.737
-0.492,-0.340,1.333,-22.522,3.662,8.606
-0.510,-0.337,1.217,-20.752,1.038,9.155
-0.495,-0.345,1.112,-15.198,0.366,6.714
-0.487,-0.332,0.987,-5.981,2.869,5.127
-0.478,-0.314,0.960,1.892,2.319,3.723
-0.453,-0.313,1.006,5.859,0.488,2.075
-0.447,-0.305,1.000,7.690,3.479,2.075
-0.424,-0.300,0.993,6.042,6.775,2.258
-0.404,-0.300,0.983,4.639,8.667,2.014
-0.386,-0.295,1.008,4.395,9.399,1.343
-0.380,-0.297,1.092,4.761,8.118,0.122
-0.390,-0.280,1.193,5.249,7.446,-0.610
-0.420,-0.259,1.289,3.906,7.751,-1.404
-0.423,-0.249,1.377,-0.244,8.484,-3.357
-0.438,-0.234,1.483,-6.897,9.277,-5.981
-0.440,-0.225,1.514,-15.320,12.756,-8.545
-0.422,-0.233,1.494,-24.170,16.846,-10.803
-0.420,-0.227,1.495,-31.738,16.846,-10.010
-0.431,-0.264,1.489,-36.377,13.672,-7.751
-0.495,-0.297,1.528,-37.842,5.920,-4.395
-0.555,-0.328,1.635,-38.208,-6.470,-2.319
-0.647,-0.378,1.803,-38.574,-21.423,-3.906
-0.696,-0.406,1.940,-41.626,-33.508,-8.606
-0.767,-0.427,2.019,-46.631,-41.321,-15.808
-0.778,-0.426,2.016,-54.688,-48.706,-24.719
-0.739,-0.398,1.974,-66.040,-54.688,-36.499
-0.658,-0.406,1.816,-78.125,-58.533,-49.133
-0.586,-0.372,1.670,-85.449,-62.927,-58.105
-0.470,-0.312,1.473,-91.431,-67.627,-64.270
-0.369,-0.290,1.300,-95.032,-73.486,-69.031
-0.241,-0.246,1.133,-95.154,-75.806,-70.740
-0.205,-0.210,0.931,-89.050,-73.975,-68.787
-0.140,-0.147,0.689,-87.646,-74.280,-64.148
-0.066,-0.100,0.471,-87.769,-76.233,-60.181
-0.017,-0.056,0.315,-86.487,-80.750,-55.237
-0.004,0.003,0.173,-80.322,-84.167,-47.607
-0.002,0.033,0.045,-70.679,-83.679,-40.833
-0.017,0.050,-0.095,-57.678,-78.369,-35.278
-0.040,0.063,-0.269,-42.847,-66.650,-30.090
-0.075,0.101,-0.385,-28.015,-56.335,-24.841
-0.112,0.124,-0.405,-12.573,-51.819,-20.142
-0.144,0.133,-0.342,-1.465,-48.096,-17.273
-0.170,0.159,-0.256,3.540,-43.640,-14.160
-0.185,0.109,-0.091,5.127,-40.894,-12.512
-0.196,0.113,-0.068,8.911,-30.457,-8.728
-0.228,0.117,0.062,9.216,-28.198,-3.418
-0.220,0.100,0.191,5.676,-23.987,-1.831
-0.222,0.105,0.264,6.653,-11.963,1.038
-0.240,0.096,0.303,10.010,0.671,4.395
-0.276,0.093,0.358,12.695,8.362,6.836
-0.283,0.080,0.424,12.268,13.184,9.583
-0.319,0.074,0.493,14.709,17.273,12.817
-0.383,0.064,0.625,15.686,15.381,16.418
-0.437,0.041,0.732,14.160,14.832,17.822
-0.505,0.026,0.860,13.489,15.198,17.334
-0.539,0.018,0.923,10.193,20.630,16.785
-0.563,-0.010,0.952,7.629,27.344,13.306
-0.576,0.007,1.002,2.869,31.189,11.108
-0.585,0.016,1.013,0.488,35.278,8.484
-0.594,0.019,1.020,-1.465,37.170,5.371
-0.576,0.024,1.028,-4.944,37.109,2.258
-0.575,0.028,1.041,-5.676,35.767,0.305
-0.569,0.038,1.030,-5.859,33.447,-0.854
-0.558,0.036,1.004,-5.371,28.687,-1.770
-0.556,0.052,0.998,-6.592,22.400,-1.282
-0.544,0.049,1.005,-6.287,15.503,-0.977
-0.547,0.032,1.014,-3.906,10.742,-0.671
-0.549,0.049,0.983,-2.686,9.094,0.977
-0.548,0.041,0.962,-1.648,5.737,1.404
-0.553,0.036,0.966,-1.587,2.014,1.770
-0.551,0.028,0.968,-1.953,0.000,1.709
-0.546,0.024,0.961,-1.709,-1.038,1.770
-0.544,0.018,0.939,-1.221,-0.610,1.526
-0.548,0.025,0.883,-0.671,0.366,1.709
-0.542,0.026,0.871,-2.380,-0.977,1.282
-0.543,0.024,0.885,-3.479,-3.052,0.549
-0.531,0.032,0.877,-3.784,-3.174,0.061
-0.521,0.031,0.855,-2.869,-2.930,-0.671
-0.512,0.037,0.836,-1.648,-2.686,-1.160
-0.510,0.035,0.810,-0.732,-2.380,-1.465
-0.497,0.042,0.803,-2.563,-1.892,-1.709
-0.492,0.045,0.825,-3.235,-2.747,-1.953
-0.480,0.041,0.835,-2.869,-2.991,-2.319
-0.467,0.050,0.822,-1.892,-1.831,-2.319
-0.455,0.059,0.801,-0.671,-0.122,-2.136
-0.446,0.047,0.796,0.793,0.732,-1.892
-0.449,0.056,0.794,1.831,0.793,-0.977
-0.449,0.059,0.797,1.526,-0.244,-0.427
-0.449,0.057,0.819,0.244,-2.075,-0.244
-0.445,0.057,0.847,-0.305,-2.991,-0.061
-0.445,0.055,0.854,0.427,-2.258,0.183
-0.445,0.057,0.847,1.221,-0.061,0.916
-0.449,0.057,0.846,1.953,1.465,1.587
-0.461,0.050,0.827,2.563,2.686,2.625
-0.475,0.050,0.830,1.160,2.808,2.991
-0.489,0.053,0.858,-1.160,1.221,2.930
-0.491,0.049,0.875,-2.380,0.854,2.747
-0.493,0.045,0.882,-2.136,1.648,2.502
-0.495,0.044,0.891,-1.831,2.625,2.319
-0.500,0.039,0.899,-1.404,3.235,2.563
-0.512,0.037,0.875,-0.732,3.540,2.930
-0.521,0.037,0.857,-1.648,1.953,2.869
-0.525,0.031,0.863,-3.967,-0.061,2.014
-0.523,0.035,0.864,-5.188,-0.732,1.465
-0.521,0.032,0.852,-4.089,-0.122,1.221
-0.515,0.031,0.845,-3.418,0.366,0.916
-0.515,0.027,0.840,-2.319,0.671,0.793
-0.515,0.034,0.844,-2.197,0.488,0.732
-0.513,0.032,0.849,-1.770,0.061,0.549

-0.625,-0.440,1.809,100.403,58.594,37.354
-0.589,-0.474,1.990,104.004,29.785,23.926
-0.596,-0.435,2.109,96.375,20.325,14.526
-0.609,-0.360,2.221,75.806,18.311,8.240
-0.533,-0.361,2.242,43.335,20.447,-0.916
-0.455,-0.344,2.114,13.367,31.067,-3.601
-0.428,-0.279,1.899,-6.104,41.321,0.366
-0.443,-0.268,1.752,-18.860,37.842,5.920
-0.483,-0.271,1.628,-24.414,27.954,10.864
-0.540,-0.266,1.542,-23.193,16.418,14.954
-0.575,-0.300,1.484,-20.020,4.761,15.686
-0.615,-0.332,1.392,-14.771,-1.526,15.991
-0.648,-0.350,1.295,-9.827,-3.906,16.479
-0.658,-0.392,1.257,-6.897,-6.287,14.282
-0.679,-0.386,1.226,-3.967,-5.737,12.329
-0.676,-0.377,1.201,-1.221,-4.883,9.338
-0.615,-0.384,1.224,-0.549,-9.033,5.005
-0.611,-0.372,1.283,-0.793,-13.123,2.075
-0.640,-0.370,1.330,-1.831,-15.320,-0.366
-0.618,-0.378,1.397,-7.019,-17.944,-4.883
-0.592,-0.390,1.511,-14.832,-21.362,-11.597
-0.574,-0.373,1.595,-23.315,-22.400,-16.846
-0.550,-0.352,1.594,-31.738,-21.057,-21.484
-0.538,-0.329,1.594,-38.269,-24.414,-24.902
-0.519,-0.326,1.592,-43.579,-32.532,-28.687
-0.516,-0.312,1.588,-47.058,-41.931,-31.799
-0.499,-0.292,1.554,-51.392,-49.133,-35.706
-0.452,-0.303,1.455,-55.298,-53.528,-41.931
-0.419,-0.261,1.328,-57.556,-57.922,-44.922
-0.377,-0.236,1.248,-60.242,-65.186,-46.326
-0.326,-0.217,1.127,-60.608,-66.406,-47.852
-0.276,-0.205,0.986,-59.814,-63.721,-49.683
-0.248,-0.168,0.826,-60.791,-61.890,-49.805
-0.208,-0.156,0.713,-58.838,-65.247,-48.828
-0.187,-0.143,0.607,-55.054,-66.772,-47.852
-0.176,-0.112,0.498,-49.561,-65.918,-45.959
-0.168,-0.091,0.367,-43.091,-62.561,-44.495
-0.165,-0.052,0.271,-37.903,-61.401,-42.480
-0.155,-0.016,0.201,-33.752,-60.608,-39.856
-0.161,0.003,0.139,-27.161,-59.082,-37.048
-0.157,0.024,0.092,-23.132,-55.115,-34.119
-0.158,0.032,0.074,-19.165,-50.659,-31.189
-0.161,0.047,0.104,-15.320,-44.983,-27.527
-0.177,0.056,0.145,-11.353,-38.696,-22.949
-0.204,0.068,0.195,-8.301,-32.959,-18.066
-0.233,0.073,0.270,-7.507,-28.992,-13.733
-0.258,0.067,0.328,-5.737,-23.743,-10.681
-0.280,0.073,0.361,-3.235,-16.907,-8.545
-0.281,0.076,0.389,-1.953,-9.888,-7.507
-0.278,0.082,0.418,0.122,-4.211,-6.348
-0.269,0.080,0.466,2.075,0.366,-4.517
-0.279,0.070,0.535,3.967,5.493,-1.831
-0.296,0.070,0.591,3.784,11.353,1.343
-0.330,0.049,0.677,3.357,14.343,3.967
-0.370,0.035,0.745,2.441,17.761,7.324
-0.416,0.018,0.787,2.319,22.400,9.888
-0.460,0.002,0.847,1.221,25.269,11.230
-0.501,-0.011,0.886,0.244,27.893,11.719
-0.535,-0.017,0.895,-0.916,30.457,11.108
-0.548,-0.039,0.901,-2.075,30.701,9.460
-0.568,-0.040,0.943,-3.357,29.114,7.812
-0.575,-0.031,0.958,-3.113,27.954,6.287
-0.585,-0.045,0.918,-1.343,27.527,4.395
-0.580,-0.038,0.893,-3.540,24.292,3.052
-0.578,-0.032,0.940,-6.836,16.907,1.648
-0.574,-0.037,0.979,-5.554,11.047,0.122
-0.574,-0.038,0.988,-3.357,7.996,-0.549
-0.574,-0.043,0.971,-2.625,6.592,-0.854
-0.565,-0.044,0.966,-3.052,5.005,-1.343
-0.558,-0.039,0.981,-3.662,3.235,-1.587
-0.551,-0.036,0.979,-3.113,2.380,-1.587
-0.546,-0.029,0.962,-2.319,1.831,-1.526
-0.536,-0.028,0.944,-1.831,1.038,-1.526
-0.537,-0.018,0.927,-2.136,-0.122,-1.465
-0.530,-0.010,0.925,-3.113,-1.282,-1.587
-0.516,-0.007,0.918,-3.052,-2.625,-2.075
-0.501,-0.002,0.901,-2.380,-3.174,-2.319
-0.490,-0.004,0.881,-1.526,-3.296,-2.380
-0.484,-0.006,0.860,-0.732,-3.174,-2.075
-0.482,-0.014,0.839,-0.488,-2.991,-1.648
-0.488,-0.008,0.827,-1.160,-2.380,-1.038
-0.484,-0.008,0.824,-1.953,-2.808,-1.404
-0.473,-0.006,0.824,-2.197,-3.174,-1.892
-0.462,-0.002,0.814,-1.587,-2.869,-2.075
-0.454,0.003,0.805,-0.793,-2.075,-2.075
-0.453,0.001,0.802,0.061,-1.404,-1.831
-0.461,-0.008,0.784,0.977,-0.854,-1.221
-0.463,-0.002,0.787,-0.732,-0.549,-0.427
-0.462,-0.003,0.805,-2.441,-1.038,-0.122
-0.467,-0.004,0.822,-2.747,-0.916,0.183
-0.469,-0.005,0.831,-2.686,-0.244,0.549
-0.470,-0.008,0.832,-2.075,0.610,0.671
-0.471,-0.012,0.847,-0.916,1.282,0.916
-0.483,-0.013,0.849,0.671,1.831,1.038
-0.490,-0.012,0.845,0.671,1.587,0.977
-0.489,-0.013,0.865,-0.305,0.366,0.183
-0.487,-0.016,0.888,-0.488,0.122,-0.122
-0.489,-0.011,0.906,-0.549,0.488,0.183
-0.494,-0.016,0.911,0.427,1.221,0.549
-0.499,-0.019,0.894,0.793,2.014,0.610
-0.505,-0.020,0.879,-0.061,2.014,0.732
-0.509,-0.019,0.880,-0.671,0.488,0.488
-0.514,-0.019,0.885,-0.488,-0.488,0.366
-0.516,-0.021,0.877,-0.366,-0.549,0.183
-0.519,-0.022,0.877,0.183,-0.732,0.061
-0.515,-0.018,0.870,-0.061,-0.549,-0.610
-0.513,-0.018,0.859,-0.549,-0.305,-1.221
-0.501,-0.013,0.845,-2.136,0.183,-1.648
-0.489,-0.008,0.840,-3.540,0.366,-1.709
-0.487,-0.005,0.854,-3.479,-0.793,-1.709
-0.488,-0.007,0.860,-2.441,-1.404,-1.343
-0.490,-0.010,0.851,-1.770,-1.099,-1.038
-0.494,-0.016,0.845,-0.977,-1.038,-0.854
-0.494,-0.017,0.842,-1.709,-0.916,-1.099
-0.486,-0.013,0.851,-3.540,-0.977,-1.343
-0.483,-0.013,0.854,-3.662,-0.916,-1.282
-0.479,-0.012,0.851,-2.808,-0.305,-1.099
-0.479,-0.012,0.851,-2.136,-0.244,-0.977
-0.483,-0.017,0.849,-1.526,-0.366,-0.793

-0.707,-0.363,2.048,66.101,31.006,25.757
-0.416,-0.454,1.719,61.096,33.691,18.677
-0.510,-0.256,1.999,51.697,3.967,23.376
-0.576,-0.321,2.014,34.546,-18.127,4.272
-0.744,-0.395,1.962,21.118,-22.217,-4.517
-0.762,-0.566,2.125,1.221,-30.457,-13.245
-0.813,-0.559,2.011,-7.629,-17.700,-8.484
-0.918,-0.537,1.968,-17.517,-9.644,-0.732
-0.938,-0.459,1.786,-24.231,-2.441,3.113
-0.944,-0.410,1.633,-30.090,-6.287,-0.183
-0.909,-0.395,1.483,-33.203,-15.381,-6.592
-0.851,-0.398,1.370,-35.583,-26.428,-15.137
-0.803,-0.404,1.369,-33.752,-41.321,-22.278
-0.755,-0.382,1.359,-31.433,-49.561,-26.672
-0.719,-0.372,1.328,-29.724,-52.429,-30.212
-0.695,-0.350,1.292,-30.334,-53.955,-33.508
-0.663,-0.326,1.305,-33.020,-56.274,-36.194
-0.640,-0.295,1.337,-36.072,-57.800,-38.940
-0.610,-0.276,1.369,-39.734,-58.289,-40.649
-0.586,-0.260,1.364,-43.335,-57.251,-41.565
-0.550,-0.231,1.341,-48.462,-54.504,-41.504
-0.503,-0.251,1.320,-52.551,-50.781,-43.091
-0.472,-0.218,1.236,-54.138,-44.556,-42.786
-0.471,-0.272,1.163,-59.021,-40.649,-42.786
-0.349,-0.230,1.105,-69.397,-40.222,-37.781
-0.265,-0.138,0.984,-66.650,-35.400,-30.640
-0.228,-0.077,0.850,-61.646,-33.508,-29.358
-0.177,-0.084,0.757,-57.983,-38.635,-32.349
-0.129,-0.064,0.691,-55.115,-43.701,-33.020
-0.088,-0.049,0.619,-50.293,-45.105,-31.433
-0.035,-0.003,0.522,-45.776,-45.410,-29.175
-0.074,0.026,0.457,-38.757,-47.485,-29.419
-0.053,-0.010,0.399,-37.048,-49.255,-31.860
-0.049,-0.012,0.337,-34.363,-47.852,-29.419
-0.075,0.012,0.285,-30.029,-46.692,-23.682
-0.105,0.005,0.260,-28.076,-45.776,-20.508
-0.126,0.001,0.238,-25.635,-43.579,-19.043
-0.146,0.003,0.241,-21.179,-39.673,-16.968
-0.177,0.011,0.241,-15.503,-33.875,-15.442
-0.190,0.015,0.262,-12.207,-30.273,-14.648
-0.202,0.012,0.292,-9.094,-27.039,-13.550
-0.230,0.028,0.298,-4.395,-22.766,-11.841
-0.254,0.029,0.297,0.305,-20.386,-10.742
-0.268,0.029,0.326,3.906,-20.020,-10.376
-0.280,0.031,0.382,6.470,-18.860,-9.399
-0.302,0.033,0.428,8.423,-13.855,-7.874
-0.318,0.038,0.458,8.240,-5.493,-5.127
-0.338,0.033,0.505,6.042,3.357,-1.770
-0.379,0.032,0.555,4.028,13.062,2.930
-0.411,0.035,0.578,3.357,21.545,7.446
-0.431,0.013,0.617,3.662,25.330,9.338
-0.477,0.002,0.703,4.395,25.696,11.230
-0.512,0.001,0.757,5.493,26.794,12.573
-0.539,-0.018,0.802,6.592,27.893,11.536
-0.564,-0.026,0.859,6.409,27.954,10.559
-0.589,-0.029,0.904,6.226,28.198,9.033
-0.595,-0.028,0.931,3.845,28.564,7.324
-0.590,-0.032,0.953,0.793,28.442,5.554
-0.594,-0.021,0.980,-1.587,27.710,4.517
-0.589,-0.021,1.009,-4.028,26.245,3.418
-0.587,-0.023,1.003,-3.906,25.208,2.075
-0.574,-0.016,1.001,-2.991,22.644,1.526
-0.569,-0.026,1.010,-1.892,18.311,0.671
-0.570,-0.016,1.023,-0.854,14.099,0.854
-0.570,-0.021,1.028,-0.122,10.376,0.366
-0.557,-0.024,1.026,-0.549,7.202,-0.671
-0.547,-0.013,1.020,-1.343,4.822,-0.366
-0.535,-0.019,1.016,-1.282,3.174,-0.366
-0.540,-0.014,0.996,-1.282,2.319,0.122
-0.538,-0.009,0.960,-2.991,1.831,0.000
-0.532,-0.008,0.951,-4.517,-0.244,-0.427
-0.518,-0.008,0.928,-4.333,-0.977,-0.793
-0.505,-0.007,0.902,-3.235,-1.099,-1.099
-0.501,-0.008,0.880,-1.892,-1.831,-0.854
-0.493,-0.014,0.866,-1.282,-2.563,-0.977
-0.495,-0.013,0.824,-0.732,-1.648,-0.977
-0.485,-0.004,0.783,-2.502,-0.427,-1.343
-0.472,-0.006,0.791,-4.517,-1.892,-1.953
-0.459,-0.003,0.808,-4.150,-2.808,-2.136
-0.458,-0.001,0.810,-2.563,-2.380,-1.831
-0.454,-0.000,0.802,-1.343,-1.709,-1.404
-0.454,-0.001,0.805,-0.183,-1.831,-1.282
-0.457,-0.002,0.791,0.427,-0.977,-0.610
-0.459,-0.005,0.797,-1.038,0.000,-0.305
-0.457,-0.000,0.816,-3.113,0.488,0.061
-0.460,-0.001,0.827,-3.296,1.099,0.305
-0.461,-0.000,0.821,-2.563,1.770,0.671
-0.462,0.000,0.828,-1.892,1.648,0.854
-0.460,0.003,0.849,-1.709,0.977,0.977
-0.458,-0.000,0.864,-1.404,1.038,1.099
-0.468,-0.001,0.876,-0.366,1.343,1.953
-0.479,-0.004,0.882,0.427,1.465,2.808
-0.489,-0.008,0.879,0.793,1.953,3.357
-0.507,-0.015,0.867,0.122,2.380,3.296
-0.506,-0.010,0.860,-2.991,2.625,2.686
-0.508,-0.011,0.873,-3.601,1.343,2.319
-0.508,-0.012,0.889,-2.869,0.671,1.831
-0.508,-0.009,0.887,-1.404,0.488,1.648
-0.510,-0.014,0.890,-0.549,-0.305,1.404
-0.513,-0.018,0.881,0.122,-0.366,1.404
-0.514,-0.016,0.878,-1.160,0.061,1.465
-0.515,-0.020,0.876,-2.563,-0.244,1.038
-0.512,-0.019,0.878,-2.991,-0.366,0.671
-0.508,-0.022,0.875,-2.686,-0.732,0.061
-0.505,-0.024,0.864,-1.892,-0.732,-0.427
-0.499,-0.021,0.848,-1.526,-0.793,-0.916
-0.482,-0.017,0.848,-2.136,-1.282,-1.404
-0.472,-0.018,0.861,-2.380,-1.831,-1.587
-0.468,-0.014,0.863,-1.404,-1.465,-1.099
-0.472,-0.018,0.856,-0.610,-0.671,-0.549
-0.475,-0.009,0.844,-0.977,0.000,-0.122
-0.477,-0.008,0.836,-1.648,0.000,-0.183
-0.471,-0.008,0.843,-2.808,-0.244,-0.610
-0.471,-0.004,0.848,-2.625,-0.366,-0.488
-0.476,-0.002,0.849,-1.526,-0.122,0.061
-0.481,-0.003,0.849,-1.099,-0.488,0.183
-0.482,-0.003,0.872,-1.038,-1.709,0.061
-0.481,-0.002,0.882,-0.732,-1.465,0.427
-0.482,-0.005,0.895,-0.427,-0.732,0.671

-0.594,-0.299,1.715,56.519,48.462,13.611
-0.535,-0.356,1.657,47.180,41.687,3.662
-0.544,-0.294,1.750,33.813,32.532,-0.610
-0.513,-0.270,1.701,20.874,30.457,-1.160
-0.541,-0.267,1.684,11.108,26.733,-1.282
-0.547,-0.262,1.634,1.160,22.522,-1.526
-0.536,-0.298,1.548,-5.615,20.264,-3.174
-0.580,-0.258,1.516,-8.911,13.306,-2.991
-0.568,-0.302,1.544,-12.878,2.808,-4.211
-0.580,-0.297,1.467,-10.742,4.517,-4.639
-0.579,-0.284,1.449,-8.911,0.366,-4.028
-0.558,-0.265,1.433,-9.216,-3.906,-4.089
-0.580,-0.242,1.417,-8.423,-6.897,-3.235
-0.584,-0.231,1.393,-10.437,-8.972,-2.686
-0.571,-0.244,1.325,-12.939,-8.606,-4.395
-0.533,-0.232,1.308,-15.259,-11.658,-5.676
-0.489,-0.228,1.276,-16.052,-13.977,-6.897
-0.466,-0.218,1.269,-15.747,-16.418,-6.714
-0.447,-0.221,1.290,-16.174,-21.057,-6.409
-0.437,-0.245,1.337,-16.663,-25.391,-5.737
-0.446,-0.256,1.421,-18.372,-29.053,-4.822
-0.479,-0.277,1.512,-21.362,-30.884,-3.967
-0.526,-0.284,1.560,-26.428,-30.457,-3.296
-0.553,-0.281,1.549,-33.875,-30.334,-4.333
-0.584,-0.315,1.515,-42.664,-31.555,-8.850
-0.592,-0.298,1.523,-51.880,-38.879,-15.015
-0.576,-0.302,1.481,-59.265,-43.945,-23.437
-0.500,-0.306,1.360,-61.890,-47.302,-32.410
-0.467,-0.269,1.300,-62.500,-56.152,-37.109
-0.412,-0.248,1.232,-63.660,-64.270,-41.260
-0.384,-0.221,1.162,-62.012,-67.566,-44.006
-0.354,-0.201,1.039,-58.960,-66.895,-45.471
-0.321,-0.211,0.922,-57.251,-66.101,-46.570
-0.248,-0.124,0.801,-57.495,-66.101,-45.105
-0.203,-0.120,0.695,-52.185,-66.040,-47.485
-0.154,-0.109,0.593,-45.776,-65.186,-48.584
-0.142,-0.034,0.546,-42.297,-63.782,-45.166
-0.094,-0.037,0.459,-38.940,-57.373,-44.556
-0.089,-0.026,0.298,-32.104,-45.349,-42.664
-0.089,0.019,0.195,-27.344,-42.358,-36.743
-0.096,0.034,0.161,-25.513,-46.387,-32.166
-0.099,0.035,0.177,-25.513,-48.096,-27.710
-0.123,0.042,0.174,-21.423,-43.152,-22.583
-0.154,0.046,0.155,-14.771,-36.743,-17.944
-0.191,0.056,0.201,-11.963,-33.386,-14.587
-0.226,0.061,0.276,-8.728,-32.532,-12.207
-0.241,0.060,0.308,-5.127,-29.602,-11.230
-0.259,0.069,0.323,0.061,-25.513,-10.376
-0.267,0.080,0.386,3.540,-23.621,-9.399
-0.260,0.077,0.437,6.042,-18.311,-9.155
-0.269,0.082,0.480,8.240,-9.766,-7.080
-0.271,0.079,0.518,7.385,-1.465,-4.089
-0.317,0.044,0.552,5.676,7.263,-0.366
-0.283,0.038,0.599,1.160,15.869,8.789
-0.361,0.138,0.614,1.160,21.240,15.381
-0.406,-0.023,0.647,5.554,18.738,10.620
-0.431,0.024,0.766,1.343,15.076,12.939
-0.473,0.005,0.815,2.197,18.372,14.221
-0.501,-0.018,0.836,4.578,21.912,12.573
-0.528,-0.025,0.880,3.113,21.301,11.230
-0.540,-0.030,0.900,0.488,21.179,8.911
-0.551,-0.030,0.924,-0.916,20.569,6.775
-0.551,-0.031,0.941,-1.831,19.653,4.944
-0.557,-0.030,0.945,-1.282,19.531,3.784
-0.556,-0.032,0.943,-0.854,18.677,2.869
-0.565,-0.032,0.943,-1.404,17.151,1.648
-0.552,-0.025,0.947,-3.601,14.465,0.610
-0.549,-0.034,0.975,-3.601,10.498,-0.671
-0.538,-0.027,0.994,-3.906,7.996,-1.099
-0.540,-0.029,0.999,-2.380,6.592,-1.221
-0.536,-0.027,0.998,-1.831,5.066,-1.099
-0.537,-0.024,0.974,-1.404,4.822,-0.977
-0.536,-0.019,0.958,-1.465,4.395,-0.671
-0.528,-0.016,0.951,-1.770,3.052,-0.916
-0.523,-0.016,0.953,-1.465,1.587,-1.343
-0.520,-0.010,0.947,0.000,0.977,-1.282
-0.517,-0.007,0.922,0.854,0.610,-1.526
-0.514,-0.004,0.880,0.183,-0.183,-2.075
-0.486,0.005,0.882,-3.723,-2.014,-2.625
-0.479,0.004,0.896,-3.479,-3.174,-2.625
-0.469,0.009,0.889,-2.441,-2.991,-2.136
-0.468,0.009,0.870,-1.343,-2.258,-1.709
-0.469,0.016,0.846,-0.610,-1.709,-1.404
-0.460,0.017,0.829,-1.343,-2.136,-1.709
-0.452,0.020,0.822,-2.197,-2.502,-1.953
-0.444,0.025,0.812,-3.052,-2.136,-1.648
-0.438,0.023,0.810,-3.052,-1.099,-1.221
-0.443,0.025,0.806,-1.343,-0.305,-0.122
-0.448,0.024,0.792,-0.671,0.366,0.793
-0.444,0.019,0.800,-1.282,0.061,1.038
-0.447,0.010,0.827,-0.671,-0.610,1.465
-0.453,0.006,0.848,0.122,-0.122,2.502
-0.468,0.000,0.853,1.404,0.732,3.235
-0.477,-0.010,0.849,1.953,1.526,3.418
-0.487,-0.014,0.862,0.854,1.648,3.113
-0.485,-0.016,0.881,0.244,1.587,2.563
-0.487,-0.018,0.883,-0.366,2.014,2.075
-0.490,-0.017,0.872,-0.610,2.319,1.526
-0.485,-0.014,0.887,-1.709,1.099,0.916
-0.482,-0.017,0.902,-1.465,0.000,0.305
-0.475,-0.014,0.906,-1.160,-0.061,0.000
-0.476,-0.013,0.902,-0.610,0.549,0.244
-0.486,-0.013,0.893,-0.427,0.610,0.549
-0.488,-0.017,0.888,-1.526,-0.122,0.427
-0.491,-0.015,0.882,-2.075,-0.610,0.305
-0.486,-0.010,0.874,-1.221,-1.099,0.244
-0.496,-0.013,0.874,-0.488,-1.953,0.427
-0.495,-0.009,0.857,0.183,-2.563,0.366
-0.496,-0.011,0.867,0.488,-3.479,-0.183
-0.493,-0.011,0.877,0.793,-4.089,-0.244
-0.494,-0.012,0.871,1.709,-3.540,0.000
-0.492,-0.016,0.869,2.075,-3.296,-0.305
-0.491,-0.018,0.872,1.526,-3.357,-0.610
-0.490,-0.014,0.869,0.061,-3.052,-0.488
-0.490,-0.016,0.876,-1.099,-2.869,-0.671
-0.485,-0.007,0.872,-1.282,-2.441,-0.793
-0.475,-0.004,0.875,-0.977,-2.441,-0.916
-0.468,-0.004,0.877,0.122,-2.869,-0.732
-0.463,-0.005,0.876,1.099,-3.052,-0.244

-0.531,-0.374,1.640,44.739,39.795,22.888
-0.499,-0.349,1.686,33.752,30.640,15.015
-0.475,-0.359,1.714,24.048,25.208,10.559
-0.504,-0.336,1.676,14.648,22.583,10.803
-0.543,-0.345,1.663,4.822,16.541,10.559
-0.507,-0.368,1.578,-3.906,10.864,9.705
-0.594,-0.370,1.616,-9.033,2.991,11.475
-0.572,-0.378,1.480,-11.536,-0.671,7.568
-0.722,-0.418,1.450,-7.996,-4.395,4.211
-0.661,-0.458,1.391,-10.559,-8.850,3.479
-0.647,-0.366,1.291,-10.010,-7.446,6.287
-0.640,-0.378,1.219,-6.653,-7.141,2.625
-0.596,-0.340,1.156,-5.981,-8.850,-0.671
-0.581,-0.320,1.123,-4.700,-12.085,-2.747
-0.553,-0.293,1.106,-3.967,-15.320,-4.150
-0.532,-0.286,1.113,-3.662,-18.616,-6.409
-0.498,-0.275,1.116,-3.601,-21.423,-8.301
-0.479,-0.258,1.135,-4.395,-22.278,-10.376
-0.461,-0.245,1.147,-5.249,-22.034,-11.963
-0.443,-0.231,1.159,-7.324,-21.790,-13.000
-0.443,-0.230,1.206,-10.376,-23.132,-13.550
-0.454,-0.229,1.261,-12.634,-23.010,-12.695
-0.476,-0.236,1.285,-14.832,-20.508,-12.024
-0.488,-0.249,1.297,-17.700,-19.531,-11.658
-0.520,-0.269,1.341,-20.752,-22.217,-11.780
-0.503,-0.250,1.365,-27.710,-25.452,-13.977
-0.512,-0.296,1.435,-30.823,-28.625,-16.602
-0.549,-0.267,1.521,-34.058,-34.851,-17.578
-0.552,-0.252,1.489,-37.476,-37.415,-20.447
-0.568,-0.240,1.447,-40.100,-43.457,-25.208
-0.535,-0.231,1.406,-45.166,-51.880,-30.945
-0.483,-0.236,1.309,-48.462,-53.589,-37.292
-0.437,-0.213,1.170,-48.462,-50.598,-40.100
-0.417,-0.198,1.078,-47.974,-47.668,-41.992
-0.366,-0.186,0.999,-48.523,-44.312,-44.128
-0.334,-0.199,0.861,-46.143,-38.330,-45.288
-0.313,-0.171,0.684,-43.640,-36.377,-43.762
-0.279,-0.138,0.607,-43.884,-46.631,-41.931
-0.260,-0.102,0.606,-44.678,-54.688,-41.687
-0.234,-0.086,0.549,-42.603,-53.467,-42.236
-0.218,-0.088,0.444,-37.354,-47.363,-41.992
-0.208,-0.051,0.378,-33.875,-47.241,-38.940
-0.214,-0.027,0.379,-32.349,-51.392,-35.522
-0.219,-0.030,0.387,-31.250,-52.124,-33.081
-0.228,-0.025,0.405,-29.663,-47.302,-30.701
-0.238,-0.010,0.410,-26.855,-40.039,-27.527
-0.255,0.000,0.399,-23.193,-31.982,-24.353
-0.272,0.008,0.411,-21.057,-25.818,-21.851
-0.279,0.020,0.433,-20.325,-20.813,-20.386
-0.297,0.022,0.451,-18.250,-16.418,-20.020
-0.307,0.031,0.448,-15.503,-12.817,-19.897
-0.309,0.036,0.429,-12.024,-10.437,-20.203
-0.334,-0.072,0.449,-9.460,-10.315,-18.860
-0.248,0.026,0.499,-12.390,-9.033,-9.644
-0.243,0.078,0.509,-3.967,-4.517,-4.761
-0.247,0.046,0.518,1.282,0.122,-5.798
-0.258,0.019,0.578,-0.244,3.174,-4.761
-0.262,0.047,0.590,-0.977,8.545,-0.671
-0.326,0.055,0.588,-0.122,13.428,1.953
-0.363,-0.001,0.622,-0.977,14.099,2.319
-0.403,0.020,0.689,-2.930,13.245,5.432
-0.451,0.005,0.729,-0.488,13.306,7.141
-0.479,-0.004,0.767,1.404,12.695,6.775
-0.501,-0.013,0.800,2.808,12.146,5.981
-0.518,-0.017,0.824,2.075,12.451,4.395
-0.530,-0.012,0.851,-0.610,12.817,2.808
-0.540,-0.017,0.879,-1.770,13.245,1.038
-0.537,-0.011,0.899,-3.052,13.977,-0.366
-0.533,-0.002,0.905,-3.357,14.404,-0.854
-0.535,0.001,0.907,-2.075,14.221,-0.488
-0.538,0.004,0.930,-1.160,12.573,-0.427
-0.539,0.005,0.946,-0.244,11.353,-0.244
-0.539,0.008,0.953,0.427,10.254,-0.061
-0.535,0.010,0.948,0.854,8.972,-0.061
-0.538,0.011,0.950,0.488,7.446,0.000
-0.539,0.007,0.949,-0.122,6.470,0.183
-0.533,0.010,0.933,-0.610,5.615,0.366
-0.528,0.011,0.930,-0.244,4.578,0.549
-0.521,0.011,0.924,0.488,3.418,0.671
-0.516,0.011,0.921,1.526,2.502,0.977
-0.521,0.008,0.924,2.075,1.099,1.587
-0.523,0.004,0.915,1.770,-0.061,1.526
-0.527,-0.000,0.895,1.221,-0.916,1.282
-0.522,0.004,0.882,0.305,-1.343,1.099
-0.514,0.004,0.870,-0.305,-1.404,0.854
-0.505,0.005,0.864,-0.244,-1.160,0.793
-0.499,0.003,0.854,0.305,-1.404,0.610
-0.490,-0.001,0.843,0.549,-1.465,0.244
-0.480,-0.000,0.834,0.183,-1.526,-0.061
-0.469,-0.006,0.829,0.000,-1.099,-0.244
-0.468,-0.011,0.829,0.061,-0.366,-0.183
-0.471,-0.010,0.831,0.671,-0.183,0.183
-0.472,-0.017,0.825,0.732,-0.244,0.244
-0.475,-0.019,0.821,0.305,-0.183,0.244
-0.474,-0.022,0.839,-0.854,-0.671,0.122
-0.479,-0.026,0.858,-0.488,-0.610,-0.122
-0.484,-0.022,0.863,-0.427,0.305,-0.305
-0.485,-0.021,0.854,-0.488,1.160,-0.977
-0.479,-0.020,0.856,-0.854,1.343,-1.404
-0.475,-0.011,0.870,-1.465,1.160,-1.465
-0.474,-0.008,0.874,-1.099,1.160,-1.282
-0.479,-0.004,0.866,0.671,1.282,-0.854
-0.489,-0.003,0.852,0.916,1.404,-0.305
-0.488,-0.006,0.862,-0.732,0.793,-0.305
-0.488,-0.006,0.877,-0.977,0.366,-0.427
-0.487,-0.003,0.866,-0.549,0.610,-0.732
-0.485,0.001,0.852,-0.793,0.366,-0.793
-0.482,-0.001,0.858,-0.610,-0.427,-0.671
-0.579,-0.061,0.886,-0.183,-0.610,0.061
-0.461,-0.047,0.877,-4.883,1.953,6.897
-0.460,0.109,0.857,-5.371,4.456,12.878
-0.505,0.007,0.825,1.282,3.113,3.174
-0.482,-0.038,0.854,-0.305,-0.122,-2.136
-0.493,0.023,0.865,-1.953,-0.122,0.732
-0.493,-0.010,0.851,-0.916,1.038,0.305
-0.493,-0.002,0.851,-0.854,0.244,0.793
-0.501,-0.006,0.861,-0.610,-0.854,1.343
-0.498,-0.016,0.866,-1.404,-1.526,0.793
-0.493,-0.013,0.880,-2.930,-2.197,0.610

-0.417,-0.507,1.827,64.575,77.454,60.669
-0.510,-0.487,1.849,68.420,64.758,44.861
-0.546,-0.387,1.883,66.833,45.166,36.316
-0.500,-0.382,1.942,60.181,28.076,22.827
-0.503,-0.374,1.937,53.955,20.813,15.259
-0.541,-0.361,1.946,44.495,15.503,11.108
-0.589,-0.391,2.021,32.410,8.484,5.859
-0.550,-0.429,1.986,21.118,8.667,0.366
-0.605,-0.390,2.029,11.414,8.423,0.305
-0.597,-0.424,1.958,0.244,9.338,-2.869
-0.618,-0.468,1.901,-5.432,8.484,-5.493
-0.571,-0.453,1.896,-10.376,2.136,-5.249
-0.662,-0.461,1.915,-10.864,-1.770,-5.554
-0.671,-0.481,1.829,-12.817,-1.953,-7.874
-0.660,-0.481,1.783,-14.954,-4.944,-11.902
-0.622,-0.439,1.761,-17.395,-11.047,-16.052
-0.605,-0.409,1.735,-18.799,-16.602,-20.203
-0.569,-0.411,1.704,-21.057,-23.437,-25.330
-0.513,-0.415,1.706,-25.696,-32.349,-29.846
-0.470,-0.393,1.783,-32.166,-42.542,-32.593
-0.476,-0.369,1.801,-38.574,-46.387,-36.194
-0.434,-0.357,1.737,-47.485,-48.828,-41.443
-0.392,-0.319,1.667,-58.716,-54.871,-47.058
-0.324,-0.269,1.580,-69.824,-59.509,-51.819
-0.237,-0.234,1.389,-77.393,-59.814,-56.641
-0.149,-0.177,1.198,-82.397,-59.448,-59.692
-0.051,-0.148,1.020,-84.839,-60.120,-61.768
0.020,-0.081,0.873,-84.167,-58.716,-60.730
0.132,-0.082,0.733,-82.092,-53.955,-58.350
0.157,-0.022,0.585,-74.463,-46.448,-50.598
0.251,0.110,0.373,-70.679,-36.316,-39.612
0.282,0.116,0.205,-63.843,-32.166,-35.522
0.280,0.132,0.111,-54.626,-34.058,-28.137
0.242,0.149,0.048,-42.603,-33.875,-18.677
0.176,0.130,0.010,-28.503,-31.311,-10.742
0.089,0.100,0.025,-16.052,-31.250,-3.906
0.027,0.096,0.057,-8.850,-31.921,1.404
-0.027,0.075,0.145,-5.920,-31.982,4.761
-0.083,0.049,0.226,-2.441,-27.161,6.287
-0.135,0.034,0.247,3.479,-17.944,6.958
-0.184,0.023,0.247,7.263,-10.864,6.348
-0.222,0.016,0.246,10.498,-9.766,5.249
-0.247,0.026,0.299,11.169,-14.282,3.784
-0.254,0.025,0.366,10.498,-17.273,1.282
-0.267,0.015,0.422,12.268,-16.052,-0.244
-0.295,0.020,0.506,13.733,-13.550,0.122
-0.320,0.005,0.584,15.564,-10.071,0.244
-0.334,-0.009,0.653,16.968,-5.127,0.427
-0.353,-0.007,0.732,15.503,-0.244,0.977
-0.369,-0.015,0.784,12.695,5.432,0.793
-0.374,-0.017,0.857,10.071,10.132,-0.183
-0.389,-0.023,0.905,6.348,14.954,-0.610
-0.391,-0.016,0.930,3.540,20.142,-0.549
-0.398,-0.010,0.948,1.709,23.499,-1.282
-0.385,-0.019,0.954,1.038,24.719,-2.258
-0.380,0.001,0.999,-1.221,22.827,-2.808
-0.374,0.005,1.010,-0.916,21.179,-2.930
-0.372,-0.005,1.003,-0.610,19.531,-3.540
-0.374,0.010,1.036,-2.014,15.564,-2.930
-0.358,0.006,1.068,-2.869,12.573,-2.747
-0.369,0.011,1.090,-1.587,10.803,-1.831
-0.369,0.001,1.109,-0.916,9.094,-0.793
-0.378,-0.005,1.097,0.732,8.606,0.244
-0.386,-0.007,1.065,1.526,7.385,1.587
-0.391,-0.010,1.071,-0.061,3.906,2.197
-0.400,-0.023,1.094,-1.465,0.488,1.648
-0.398,-0.023,1.085,-1.404,-0.793,1.526
-0.400,-0.028,1.057,-0.732,-1.038,0.793
-0.395,-0.021,1.026,0.061,-1.282,0.305
-0.390,-0.024,0.999,0.366,-2.441,-0.732
-0.379,-0.019,0.979,-0.183,-4.150,-1.343
-0.364,-0.017,0.965,-1.404,-6.226,-1.892
-0.349,-0.017,0.940,-0.366,-6.775,-2.686
-0.341,-0.014,0.904,0.183,-6.653,-2.808
-0.330,-0.001,0.875,0.244,-6.714,-2.808
-0.322,0.000,0.864,-0.977,-7.935,-3.113
-0.314,0.010,0.854,-1.221,-8.728,-3.174
-0.304,0.011,0.850,-0.610,-8.850,-3.235
-0.301,0.015,0.862,-0.244,-8.545,-3.174
-0.304,0.014,0.853,-0.244,-6.958,-2.808
-0.309,0.011,0.845,1.465,-5.554,-2.197
-0.317,0.002,0.841,1.709,-4.517,-1.709
-0.321,0.002,0.860,0.488,-3.906,-1.099
-0.324,-0.001,0.887,0.793,-3.235,-0.977
-0.329,0.001,0.897,1.770,-2.014,-0.610
-0.339,-0.001,0.881,2.319,-0.610,-0.610
-0.339,-0.005,0.905,1.160,-1.282,-0.610
-0.341,-0.011,0.932,0.610,-1.770,-0.671
-0.342,-0.005,0.937,1.038,-1.038,-0.122
-0.353,-0.014,0.951,1.953,-0.793,-0.061
-0.370,-0.024,0.945,2.502,-0.244,0.244
-0.377,-0.023,0.944,-0.366,0.183,0.366
-0.375,-0.020,0.969,-2.869,-0.488,-0.183
-0.374,-0.023,0.980,-2.258,-0.488,-0.610
-0.372,-0.021,0.977,-1.282,0.122,-0.366
-0.379,-0.025,0.968,-0.122,-0.122,-0.488
-0.379,-0.032,0.957,0.854,-1.038,-0.305
-0.388,-0.034,0.980,0.732,-2.686,-0.244
-0.394,-0.036,0.990,1.587,-2.991,-0.488
-0.399,-0.042,0.983,1.831,-2.991,-1.282
-0.395,-0.038,0.980,0.916,-2.991,-1.953
-0.391,-0.041,0.965,0.854,-2.930,-2.563
-0.380,-0.044,0.946,-0.305,-3.113,-2.808
-0.381,-0.036,0.972,-2.869,-4.578,-2.808
-0.381,-0.031,0.988,-2.808,-5.493,-2.563
-0.379,-0.028,0.973,-2.075,-4.456,-2.747
-0.376,-0.024,0.961,-2.136,-4.333,-2.747
-0.377,-0.026,0.955,-2.014,-5.310,-2.930
-0.375,-0.025,0.958,-2.747,-6.104,-3.052
-0.375,-0.022,0.962,-3.296,-6.348,-2.869
-0.377,-0.019,0.965,-2.502,-6.226,-2.747
-0.377,-0.015,0.961,-2.319,-6.104,-2.808
-0.377,-0.013,0.968,-3.174,-5.737,-2.869
-0.380,-0.001,0.969,-2.197,-4.761,-2.686
-0.378,0.003,0.963,-1.282,-3.662,-2.563
-0.375,0.001,0.950,-0.610,-3.235,-2.563
-0.372,-0.000,0.928,0.305,-3.296,-2.136
-0.373,-0.004,0.935,0.061,-5.127,-1.526
-0.377,-0.014,0.951,0.244,-7.935,-0.793

-0.411,-0.672,2.246,40.955,158.752,101.501
-0.660,-0.703,2.355,41.687,129.639,82.214
-0.603,-0.751,2.292,45.288,99.487,57.678
-0.590,-0.635,2.258,49.133,63.049,37.720
-0.477,-0.586,2.460,41.931,22.156,20.935
-0.571,-0.440,2.114,41.443,14.587,9.033
-0.469,-0.411,2.234,24.048,-15.320,9.766
-0.480,-0.525,2.310,5.188,-29.480,1.221
-0.521,-0.426,2.033,-2.014,-3.357,9.705
-0.543,-0.422,1.868,-12.695,9.827,13.977
-0.576,-0.465,1.804,-20.081,10.559,12.329
-0.567,-0.428,1.667,-20.935,12.695,12.451
-0.551,-0.438,1.561,-16.785,5.249,10.254
-0.556,-0.435,1.496,-11.536,-9.460,7.263
-0.542,-0.464,1.465,-5.737,-27.161,4.028
-0.544,-0.474,1.541,-1.404,-46.570,-0.305
-0.541,-0.479,1.627,0.488,-58.960,-3.967
-0.525,-0.471,1.705,-0.854,-64.331,-8.972
-0.511,-0.470,1.790,-6.714,-67.688,-14.404
-0.487,-0.463,1.882,-17.700,-66.711,-20.142
-0.439,-0.445,1.910,-30.029,-61.951,-26.367
-0.414,-0.408,1.913,-42.969,-59.387,-31.494
-0.380,-0.359,1.848,-57.251,-61.035,-35.645
-0.355,-0.322,1.699,-69.214,-65.247,-39.063
-0.321,-0.237,1.578,-77.759,-70.740,-40.283
-0.301,-0.247,1.363,-82.642,-73.059,-45.837
-0.207,-0.231,1.129,-84.045,-71.716,-50.110
-0.152,-0.179,0.960,-81.238,-70.313,-49.500
-0.091,-0.169,0.750,-72.510,-67.993,-49.316
-0.014,-0.055,0.540,-62.317,-71.472,-46.509
0.031,-0.003,0.446,-59.937,-77.271,-46.082
0.077,0.025,0.306,-54.260,-77.637,-47.424
0.102,0.036,0.128,-43.701,-72.876,-46.143
0.121,0.079,0.019,-34.851,-73.120,-42.236
0.124,0.111,-0.024,-30.823,-74.707,-37.109
0.113,0.115,-0.025,-26.001,-74.402,-31.372
0.075,0.107,-0.026,-18.433,-69.275,-23.376
0.009,0.094,-0.012,-10.864,-60.059,-14.404
-0.039,0.073,0.019,-4.761,-49.133,-7.141
-0.105,0.051,0.019,0.000,-36.316,-2.014
-0.169,0.059,0.023,4.211,-24.902,2.380
-0.209,0.025,0.101,6.836,-19.470,4.517
-0.261,0.002,0.183,12.512,-11.963,6.287
-0.308,-0.016,0.249,18.616,-4.639,6.775
-0.340,-0.031,0.324,21.362,-0.488,5.371
-0.352,-0.043,0.429,20.813,2.930,2.625
-0.373,-0.039,0.524,19.714,6.714,0.000
-0.371,-0.035,0.610,17.517,10.376,-2.014
-0.365,-0.037,0.685,16.174,13.428,-4.761
-0.365,-0.039,0.771,15.259,15.198,-6.348
-0.371,-0.045,0.862,13.367,16.968,-7.141
-0.392,-0.042,0.959,10.437,19.348,-7.385
-0.374,-0.063,0.975,6.653,24.536,-7.935
-0.398,-0.055,1.026,1.465,29.175,-7.141
-0.409,-0.024,1.073,-4.150,30.823,-5.737
-0.414,-0.026,1.075,-7.263,33.691,-6.042
-0.412,-0.015,1.076,-8.667,34.180,-6.042
-0.424,-0.011,1.063,-8.911,33.508,-5.798
-0.423,-0.005,1.000,-8.911,31.616,-5.554
-0.422,0.006,1.033,-12.207,22.949,-5.249
-0.422,0.004,1.064,-13.428,16.541,-4.822
-0.423,0.004,1.082,-10.925,13.672,-3.601
-0.430,-0.001,1.061,-7.324,11.658,-2.563
-0.439,-0.011,1.046,-5.127,8.423,-1.587
-0.445,-0.013,1.018,-4.272,6.042,-0.854
-0.453,-0.011,1.009,-4.089,3.174,-0.183
-0.442,-0.028,1.023,-4.700,0.488,-0.732
-0.442,-0.039,1.027,-3.052,-0.061,-0.977
-0.445,-0.041,1.007,-1.709,0.671,-0.549
-0.453,-0.057,0.972,-0.366,0.610,-0.427
-0.455,-0.063,0.949,0.000,-1.709,-0.183
-0.450,-0.064,0.964,-2.747,-4.761,-0.977
-0.442,-0.061,0.961,-3.845,-5.615,-2.136
-0.436,-0.055,0.934,-3.906,-5.005,-3.601
-0.422,-0.046,0.903,-4.578,-4.456,-5.432
-0.404,-0.035,0.869,-5.249,-3.723,-6.775
-0.384,-0.017,0.868,-6.958,-3.845,-7.385
-0.375,-0.010,0.869,-7.141,-4.456,-7.507
-0.364,-0.001,0.854,-5.432,-5.127,-6.897
-0.366,-0.004,0.870,-4.395,-6.653,-6.775
-0.367,-0.003,0.865,-3.967,-6.775,-6.409
-0.370,0.001,0.857,-3.784,-5.737,-5.981
-0.365,0.007,0.851,-3.906,-5.066,-5.676
-0.367,0.001,0.853,-2.808,-4.272,-5.432
-0.364,0.004,0.870,-2.380,-3.479,-4.761
-0.369,-0.001,0.881,-1.221,-2.380,-4.150
-0.376,0.000,0.892,0.183,-1.160,-3.235
-0.380,0.000,0.905,1.038,-0.610,-2.808
-0.388,-0.001,0.919,2.197,-0.427,-2.869
-0.391,-0.000,0.930,3.296,-0.366,-2.441
-0.397,-0.006,0.939,4.578,-0.427,-2.197
-0.430,0.000,0.981,5.615,-0.671,-1.892
-0.384,-0.005,0.932,6.592,0.366,-2.625
-0.403,-0.068,0.923,10.071,2.014,-3.967
-0.417,-0.024,0.976,6.531,-0.671,-1.526
-0.410,-0.021,0.947,7.874,0.732,-0.916
-0.411,-0.031,0.919,9.888,1.648,-0.793
-0.423,-0.061,0.953,8.362,-2.258,-0.854
-0.442,-0.069,0.977,9.094,-4.333,0.244
-0.457,-0.084,0.974,10.925,-4.150,0.732
-0.471,-0.106,0.963,12.512,-4.395,-0.061
-0.486,-0.119,0.966,12.207,-5.615,-1.038
-0.496,-0.131,0.966,12.024,-5.676,-2.258
-0.500,-0.146,0.943,12.695,-4.211,-4.150
-0.497,-0.151,0.904,12.512,-3.296,-6.409
-0.488,-0.154,0.863,11.353,-3.296,-8.850
-0.469,-0.155,0.833,10.193,-3.479,-10.803
-0.453,-0.139,0.797,11.108,-3.845,-12.573
-0.425,-0.112,0.746,8.545,-4.395,-14.465
-0.395,-0.105,0.693,4.028,-5.554,-17.273
-0.373,-0.084,0.647,-0.183,-7.385,-18.982
-0.356,-0.055,0.591,-3.174,-8.850,-19.531
-0.341,-0.042,0.536,-3.113,-10.010,-20.691
-0.328,-0.036,0.492,-2.319,-10.925,-22.156
-0.285,-0.024,0.408,-3.540,-9.949,-23.193
-0.273,0.023,0.394,-4.395,-7.629,-23.315
-0.207,0.082,0.339,-2.197,-4.211,-22.522
-0.119,0.086,0.194,6.592,6.042,-22.156
-0.031,0.171,0.024,14.465,18.616,-16.235

-0.765,-1.030,2.081,81.726,106.445,122.253
-0.782,-1.173,2.116,76.172,88.989,92.346
-0.942,-0.971,2.057,71.716,73.181,75.867
-0.862,-0.923,2.051,52.673,44.373,51.086
-0.748,-0.871,2.028,38.452,25.757,26.489
-0.683,-0.776,2.005,27.344,14.587,13.489
-0.631,-0.821,2.075,12.329,3.540,1.709
-0.633,-0.784,2.000,-0.244,8.240,-3.723
-0.594,-0.738,1.878,-11.841,16.479,-6.653
-0.521,-0.720,1.786,-22.827,19.897,-11.658
-0.477,-0.715,1.737,-28.442,21.301,-16.174
-0.444,-0.654,1.699,-28.931,20.386,-15.625
-0.420,-0.664,1.675,-28.137,11.658,-17.700
-0.401,-0.650,1.647,-26.306,2.014,-19.165
-0.399,-0.633,1.633,-24.292,-9.094,-19.348
-0.424,-0.609,1.621,-20.569,-20.020,-19.531
-0.422,-0.583,1.642,-18.738,-30.029,-20.081
-0.428,-0.595,1.731,-18.799,-39.429,-21.362
-0.434,-0.599,1.819,-19.836,-43.823,-22.217
-0.466,-0.601,1.910,-25.696,-45.532,-23.499
-0.501,-0.616,2.039,-36.926,-50.293,-26.001
-0.518,-0.616,2.070,-50.171,-51.819,-31.067
-0.512,-0.577,1.981,-65.308,-51.575,-37.659
-0.448,-0.518,1.830,-79.956,-55.054,-45.715
-0.404,-0.450,1.710,-89.844,-62.134,-55.542
-0.255,-0.414,1.471,-90.698,-66.345,-63.477
-0.172,-0.304,1.226,-84.900,-68.298,-67.139
-0.011,-0.172,1.025,-81.299,-74.280,-68.787
0.090,-0.122,0.846,-75.867,-78.735,-73.059
0.203,-0.020,0.641,-70.374,-77.515,-70.313
0.269,0.070,0.463,-64.209,-73.853,-65.369
0.332,0.143,0.340,-61.462,-74.280,-59.448
0.355,0.182,0.167,-56.091,-68.909,-52.551
0.376,0.249,-0.025,-50.598,-64.209,-42.786
0.365,0.299,-0.132,-45.837,-66.040,-33.203
0.330,0.299,-0.191,-40.466,-66.467,-24.475
0.267,0.269,-0.218,-28.809,-64.270,-14.160
0.177,0.202,-0.156,-16.418,-61.646,-2.625
0.073,0.154,-0.117,-6.042,-52.429,8.240
-0.014,0.108,-0.089,1.709,-40.771,16.418
-0.084,0.052,-0.019,7.141,-32.043,20.813
-0.182,-0.013,0.081,12.451,-24.780,23.437
-0.248,-0.051,0.176,15.625,-17.578,23.621
-0.296,-0.072,0.210,16.113,-10.986,20.935
-0.369,-0.151,0.376,16.174,-10.742,15.686
-0.384,-0.154,0.447,15.259,-6.470,10.071
-0.395,-0.153,0.500,17.578,-2.380,5.127
-0.401,-0.175,0.583,17.151,-1.953,-0.366
-0.419,-0.171,0.684,15.320,-1.770,-2.930
-0.425,-0.157,0.745,13.062,0.427,-5.005
-0.418,-0.160,0.816,11.719,1.465,-8.118
-0.420,-0.154,0.922,9.338,1.587,-10.803
-0.433,-0.148,1.002,5.981,4.272,-12.573
-0.420,-0.136,1.025,1.587,10.864,-13.977
-0.414,-0.132,1.019,-2.563,17.334,-14.709
-0.412,-0.105,1.041,-8.362,19.775,-14.038
-0.403,-0.082,1.052,-13.062,21.973,-12.939
-0.396,-0.071,1.038,-14.893,24.719,-11.780
-0.401,-0.059,1.030,-15.015,26.367,-9.949
-0.414,-0.052,1.006,-13.611,26.001,-8.057
-0.434,-0.042,1.004,-12.573,21.912,-6.653
-0.427,-0.034,1.014,-12.878,16.541,-6.653
-0.418,-0.038,1.022,-11.780,12.512,-6.958
-0.403,-0.041,1.009,-10.071,10.376,-6.287
-0.402,-0.031,1.005,-8.423,8.179,-5.005
-0.388,-0.038,1.020,-7.690,5.127,-4.150
-0.395,-0.037,1.022,-4.822,3.662,-3.113
-0.388,-0.044,1.024,-3.418,0.977,-2.319
-0.386,-0.053,1.016,-1.648,-1.648,-1.831
-0.384,-0.072,1.016,-0.305,-3.296,-0.732
-0.407,-0.082,1.003,-0.549,-3.113,0.671
-0.412,-0.082,0.962,-1.343,-2.502,1.648
-0.419,-0.083,0.949,-1.160,-4.578,1.099
-0.417,-0.083,0.959,-1.953,-8.301,-0.244
-0.412,-0.073,0.941,-1.282,-9.033,-1.343
-0.401,-0.069,0.922,-0.427,-9.216,-1.770
-0.392,-0.073,0.915,-0.427,-9.399,-2.319
-0.397,-0.067,0.890,-0.305,-7.996,-2.441
-0.382,-0.062,0.850,-0.793,-6.165,-3.296
-0.373,-0.049,0.844,-1.587,-6.836,-4.395
-0.361,-0.042,0.847,-0.671,-7.385,-4.333
-0.353,-0.044,0.860,0.732,-6.775,-4.028
-0.347,-0.042,0.863,2.075,-4.883,-2.991
-0.345,-0.043,0.863,3.113,-3.052,-2.136
-0.348,-0.046,0.874,3.235,-1.404,-0.977
-0.355,-0.043,0.880,3.479,0.793,0.549
-0.364,-0.054,0.838,4.272,3.540,1.648
-0.364,-0.057,0.830,2.197,5.005,2.075
-0.361,-0.054,0.864,-0.549,3.540,2.136
-0.363,-0.059,0.884,0.488,3.479,2.136
-0.369,-0.059,0.886,2.380,4.700,1.953
-0.379,-0.063,0.884,3.967,4.639,1.526
-0.386,-0.074,0.883,4.517,4.150,1.160
-0.393,-0.073,0.916,3.479,2.869,0.916
-0.397,-0.079,0.950,2.319,1.404,0.427
-0.406,-0.093,0.964,1.953,1.587,-0.427
-0.412,-0.099,0.943,1.099,2.380,-0.610
-0.411,-0.099,0.922,-1.831,2.136,-0.671
-0.415,-0.092,0.930,-2.930,-0.732,-0.732
-0.410,-0.096,0.926,-2.014,-2.258,-1.038
-0.411,-0.097,0.926,-0.977,-2.319,-1.221
-0.417,-0.094,0.923,0.244,-2.441,-1.160
-0.417,-0.094,0.924,0.183,-2.380,-1.282
-0.420,-0.093,0.926,0.122,-1.892,-1.587
-0.419,-0.094,0.929,0.732,-1.160,-1.953
-0.415,-0.093,0.927,0.732,-0.305,-2.380
-0.408,-0.086,0.917,1.160,0.061,-2.930
-0.402,-0.082,0.906,1.709,-0.122,-3.479
-0.390,-0.084,0.893,2.197,-0.977,-3.601
-0.384,-0.077,0.905,2.197,-2.563,-3.601
-0.380,-0.071,0.898,3.723,-2.380,-3.052
-0.375,-0.072,0.884,4.883,-2.258,-2.747
-0.374,-0.076,0.898,4.822,-3.845,-2.502
-0.373,-0.080,0.911,4.272,-4.944,-2.441
-0.375,-0.088,0.902,4.150,-4.395,-2.625
-0.378,-0.088,0.893,2.014,-3.540,-2.625
-0.375,-0.081,0.890,-0.244,-3.113,-2.502
-0.372,-0.082,0.889,-0.244,-2.502,-2.808
-0.367,-0.084,0.896,0.366,-1.770,-2.747

-0.507,-0.786,1.872,73.669,125.732,99.243
-0.740,-0.806,2.132,73.059,97.229,82.092
-0.731,-0.937,2.355,64.697,75.684,57.190
-0.867,-0.761,2.317,58.533,77.148,44.983
-0.774,-0.656,2.216,44.678,73.486,27.893
-0.589,-0.645,2.168,24.414,57.922,1.709
-0.470,-0.532,2.186,13.855,46.570,-4.517
-0.365,-0.459,2.051,6.409,48.889,-8.423
-0.356,-0.449,2.040,0.671,41.077,-9.399
-0.306,-0.439,2.080,-5.615,33.020,-8.240
-0.173,-0.373,2.040,-11.108,31.677,-4.578
-0.248,-0.329,2.022,-12.695,29.602,-1.831
-0.221,-0.307,1.943,-16.785,25.452,0.977
-0.241,-0.351,1.911,-18.311,15.869,2.869
-0.287,-0.352,2.010,-21.423,0.977,6.775
-0.345,-0.343,1.942,-22.827,-6.897,9.216
-0.388,-0.348,1.882,-23.621,-16.907,9.705
-0.419,-0.349,1.855,-24.170,-32.776,5.981
-0.437,-0.356,1.836,-22.888,-47.852,1.465
-0.444,-0.355,1.837,-23.499,-62.195,-4.150
-0.461,-0.348,1.835,-25.391,-74.097,-10.437
-0.425,-0.330,1.805,-30.212,-84.351,-17.456
-0.427,-0.312,1.771,-38.147,-93.262,-25.940
-0.300,-0.320,1.633,-47.791,-98.511,-35.583
-0.259,-0.277,1.517,-51.941,-103.333,-39.856
-0.230,-0.248,1.366,-55.664,-105.042,-42.603
-0.163,-0.209,1.138,-55.542,-102.234,-44.800
-0.103,-0.166,0.982,-53.162,-103.577,-47.791
-0.037,-0.111,0.885,-53.223,-100.952,-48.950
0.043,-0.058,0.626,-43.579,-85.938,-50.293
0.082,-0.027,0.440,-32.959,-78.979,-50.293
0.149,0.049,0.318,-32.593,-77.454,-48.462
0.178,0.122,0.179,-28.442,-70.557,-44.434
0.194,0.149,0.104,-23.987,-63.782,-39.612
0.203,0.173,0.003,-21.179,-54.138,-34.424
0.198,0.222,-0.143,-15.625,-44.556,-26.062
0.166,0.241,-0.215,-12.085,-41.077,-17.151
0.123,0.198,-0.210,-10.925,-41.138,-9.033
0.054,0.138,-0.141,-5.798,-40.649,0.061
-0.016,0.099,-0.078,1.587,-36.316,9.766
-0.092,0.061,-0.009,9.338,-30.640,17.090
-0.183,0.008,0.087,17.578,-25.635,21.362
-0.257,-0.021,0.195,21.606,-20.386,22.705
-0.312,-0.059,0.295,22.766,-13.428,20.386
-0.345,-0.060,0.374,22.949,-6.714,15.442
-0.358,-0.139,0.495,20.874,-3.052,8.667
-0.376,-0.151,0.621,21.057,0.366,4.639
-0.379,-0.125,0.695,18.188,6.165,2.991
-0.372,-0.129,0.752,15.930,9.705,-0.610
-0.367,-0.143,0.849,12.817,9.583,-3.418
-0.372,-0.140,0.925,8.728,12.634,-4.333
-0.380,-0.145,0.985,4.456,17.090,-5.127
-0.389,-0.150,1.017,-1.282,21.973,-6.226
-0.405,-0.131,1.029,-6.958,25.574,-6.042
-0.408,-0.120,1.054,-13.916,27.771,-6.775
-0.415,-0.102,1.068,-19.043,29.541,-7.874
-0.420,-0.078,1.050,-20.081,30.762,-9.033
-0.409,-0.052,1.033,-20.630,28.748,-10.559
-0.397,-0.036,1.038,-21.057,24.414,-11.841
-0.382,-0.023,1.031,-19.531,20.569,-12.024
-0.374,-0.020,1.023,-16.174,16.968,-11.475
-0.383,-0.010,1.003,-12.756,13.672,-10.071
-0.377,-0.001,1.024,-11.169,8.667,-8.789
-0.381,-0.012,1.046,-8.911,4.395,-8.240
-0.378,-0.010,1.050,-6.958,2.136,-7.080
-0.375,-0.023,1.062,-6.287,0.854,-5.554
-0.378,-0.031,1.074,-5.127,0.671,-4.089
-0.379,-0.033,1.044,-3.845,1.587,-2.869
-0.379,-0.032,1.021,-3.601,2.136,-2.380
-0.383,-0.019,1.001,-3.296,2.075,-1.953
-0.384,-0.016,0.971,-2.197,0.610,-1.831
-0.380,-0.015,0.972,-1.831,-3.296,-1.709
-0.375,-0.024,0.988,-2.014,-6.531,-1.648
-0.373,-0.030,0.975,-1.770,-7.385,-1.648
-0.377,-0.028,0.937,-0.305,-6.775,-1.526
-0.386,-0.034,0.892,0.366,-5.798,-1.587
-0.387,-0.029,0.866,-1.343,-4.883,-2.197
-0.383,-0.019,0.874,-2.686,-5.371,-2.808
-0.372,-0.021,0.890,-3.418,-6.104,-4.150
-0.360,-0.012,0.881,-3.906,-5.493,-5.371
-0.353,-0.001,0.863,-3.418,-4.578,-5.920
-0.341,0.004,0.837,-2.808,-4.089,-6.348
-0.329,0.005,0.814,-2.319,-3.540,-6.531
-0.313,0.016,0.835,-2.014,-4.211,-5.920
-0.305,0.006,0.864,-1.221,-4.578,-4.944
-0.304,0.004,0.885,-0.488,-3.540,-3.296
-0.314,-0.009,0.903,0.732,-2.563,-1.587
-0.326,-0.025,0.924,0.916,-1.099,-0.366
-0.347,-0.028,0.938,1.526,0.610,1.038
-0.361,-0.027,0.938,0.854,2.319,1.953
-0.369,-0.033,0.946,0.122,2.197,1.770
-0.382,-0.035,0.965,-0.305,0.732,1.282
-0.389,-0.037,0.968,0.671,0.427,0.916
-0.396,-0.036,0.952,1.587,0.549,0.366
-0.396,-0.043,0.960,1.282,-0.854,-0.244
-0.394,-0.046,0.983,-0.061,-2.563,-0.793
-0.394,-0.046,0.986,0.244,-3.662,-1.160
-0.393,-0.048,0.990,0.122,-5.493,-1.404
-0.393,-0.055,0.989,0.488,-7.202,-1.526
-0.400,-0.051,0.984,1.648,-8.423,-0.793
-0.409,-0.058,0.982,2.380,-10.193,-1.282
-0.422,-0.065,0.977,2.563,-11.841,-1.892
-0.426,-0.064,0.956,2.563,-11.780,-2.197
-0.428,-0.065,0.958,1.770,-12.207,-2.930
-0.434,-0.065,0.973,1.282,-12.634,-3.906
-0.432,-0.060,0.972,0.732,-11.719,-5.249
-0.426,-0.062,0.975,-0.793,-10.620,-6.287
-0.422,-0.056,0.982,-2.563,-9.705,-6.653
-0.421,-0.050,0.974,-3.113,-9.094,-7.080
-0.420,-0.050,0.955,-3.784,-9.094,-7.812
-0.414,-0.050,0.935,-3.845,-10.010,-8.484
-0.414,-0.046,0.906,-3.357,-11.108,-9.399
-0.411,-0.045,0.877,-3.052,-12.146,-10.132
-0.405,-0.046,0.850,-2.991,-13.550,-11.597
-0.403,-0.050,0.825,-2.991,-15.015,-12.512
-0.395,-0.046,0.795,-2.441,-15.564,-13.367
-0.389,-0.042,0.770,-1.404,-16.418,-13.916
-0.381,-0.041,0.748,-1.404,-16.174,-14.771
-0.369,-0.035,0.704,-2.136,-14.465,-15.442

-0.652,-0.788,2.184,87.708,122.375,107.788
-0.821,-1.078,2.691,77.148,70.129,71.106
-1.186,-0.907,2.887,62.927,58.228,57.800
-0.582,-1.021,2.212,50.232,71.289,38.330
-0.911,-0.555,2.646,41.809,14.282,33.264
-0.879,-0.570,2.719,2.014,-50.537,-12.451
-0.884,-0.793,2.634,-17.212,-45.288,-45.227
-0.876,-0.845,2.495,-33.936,-23.621,-42.480
-0.771,-0.542,2.153,-47.180,6.042,-20.691
-0.759,-0.471,1.882,-51.575,17.334,-15.808
-0.679,-0.432,1.723,-53.772,7.629,-21.240
-0.608,-0.427,1.610,-50.171,-6.042,-23.010
-0.547,-0.426,1.502,-41.565,-17.273,-23.376
-0.532,-0.417,1.453,-33.325,-29.297,-21.912
-0.525,-0.411,1.483,-28.137,-42.603,-21.423
-0.499,-0.398,1.504,-26.062,-50.537,-22.217
-0.472,-0.381,1.498,-26.489,-53.833,-23.560
-0.459,-0.367,1.499,-29.480,-56.641,-24.780
-0.426,-0.362,1.512,-32.837,-58.472,-26.978
-0.368,-0.318,1.470,-34.546,-55.908,-28.503
-0.305,-0.259,1.430,-35.095,-54.443,-28.442
-0.270,-0.251,1.388,-34.241,-55.420,-29.236
-0.250,-0.232,1.295,-33.386,-54.321,-30.212
-0.209,-0.203,1.289,-34.912,-56.885,-31.372
-0.178,-0.260,1.219,-36.194,-48.401,-33.630
-0.155,-0.182,1.049,-35.034,-35.645,-28.076
-0.086,-0.151,0.820,-34.668,-30.640,-22.888
-0.020,-0.050,0.683,-36.682,-38.391,-19.348
0.023,0.021,0.579,-35.339,-50.842,-20.386
0.079,0.082,0.488,-34.851,-60.364,-25.024
0.073,0.085,0.389,-29.968,-66.528,-31.372
0.067,0.049,0.327,-28.503,-69.458,-35.889
0.064,0.043,0.255,-27.344,-68.359,-32.654
0.044,0.066,0.219,-23.682,-66.956,-26.855
0.004,0.067,0.217,-20.874,-65.063,-21.362
-0.049,0.046,0.217,-18.677,-62.378,-16.418
-0.094,0.016,0.225,-17.944,-57.434,-12.146
-0.133,-0.002,0.202,-14.954,-48.157,-8.728
-0.173,-0.007,0.192,-13.000,-39.429,-6.592
-0.191,-0.009,0.213,-12.512,-32.837,-6.409
-0.203,-0.003,0.245,-10.437,-26.245,-5.981
-0.228,0.000,0.278,-5.920,-20.630,-4.944
-0.264,-0.001,0.285,-1.099,-16.968,-4.028
-0.298,-0.006,0.330,4.578,-15.747,-2.747
-0.344,-0.029,0.437,8.667,-15.320,-2.075
-0.389,-0.050,0.540,11.658,-11.108,-1.709
-0.416,-0.067,0.631,11.230,-3.784,-1.282
-0.439,-0.080,0.698,8.789,5.188,-0.977
-0.448,-0.075,0.739,3.967,14.160,-0.732
-0.457,-0.076,0.793,0.854,19.104,-1.099
-0.464,-0.073,0.818,-1.404,22.217,-1.892
-0.472,-0.076,0.846,-2.075,24.414,-2.808
-0.484,-0.076,0.894,-1.831,24.658,-4.395
-0.475,-0.071,0.938,-3.296,24.963,-6.592
-0.464,-0.068,0.973,-4.578,24.902,-8.789
-0.451,-0.057,0.996,-4.944,23.621,-9.521
-0.446,-0.054,1.001,-5.859,22.095,-9.399
-0.451,-0.044,1.001,-6.409,20.203,-8.606
-0.449,-0.033,0.995,-6.714,17.578,-7.690
-0.450,-0.025,1.006,-6.714,13.611,-7.385
-0.439,-0.022,1.015,-6.287,10.620,-7.629
-0.434,-0.022,0.990,-4.272,9.338,-7.324
-0.437,-0.024,0.994,-4.395,6.592,-6.531
-0.439,-0.024,1.007,-5.188,3.784,-5.798
-0.439,-0.026,1.007,-4.028,2.686,-4.944
-0.432,-0.028,0.991,-3.052,2.930,-4.517
-0.422,-0.028,0.976,-3.235,3.113,-4.150
-0.418,-0.015,0.951,-2.258,3.113,-3.479
-0.405,-0.012,0.924,-1.465,2.441,-3.052
-0.398,-0.018,0.917,-1.038,1.343,-2.625
-0.394,-0.017,0.927,-0.488,-0.122,-2.014
-0.391,-0.021,0.927,-0.122,-0.732,-1.648
-0.393,-0.023,0.914,1.099,-0.488,-1.099
-0.397,-0.028,0.901,2.258,-0.610,-0.244
-0.400,-0.037,0.889,1.709,-0.793,0.366
-0.409,-0.039,0.901,-0.366,-1.160,0.854
-0.414,-0.039,0.896,-0.793,-0.732,0.916
-0.417,-0.040,0.893,-1.160,-0.488,0.488
-0.414,-0.043,0.895,-1.343,-0.305,-0.183
-0.411,-0.049,0.904,-1.221,0.305,-1.099
-0.409,-0.044,0.910,-1.465,1.099,-1.892
-0.402,-0.042,0.907,-2.686,2.380,-2.808
-0.391,-0.038,0.892,-3.601,3.906,-3.723
-0.381,-0.031,0.880,-3.845,4.700,-3.845
-0.376,-0.031,0.865,-3.723,4.883,-3.601
-0.374,-0.020,0.847,-3.479,4.456,-2.930
-0.374,-0.010,0.840,-3.784,2.991,-2.380
-0.368,-0.003,0.850,-3.174,0.916,-1.953
-0.362,-0.004,0.861,-2.441,-0.122,-1.221
-0.364,-0.007,0.867,-0.977,0.427,0.305
-0.376,-0.011,0.861,-0.183,1.343,2.075
-0.384,-0.017,0.863,-0.549,1.770,3.540
-0.398,-0.027,0.891,-0.366,0.916,4.883
-0.414,-0.042,0.916,0.793,0.671,5.798
-0.431,-0.050,0.932,1.343,1.282,6.409
-0.450,-0.052,0.944,1.282,1.160,6.165
-0.464,-0.064,0.948,0.916,0.488,4.883
-0.465,-0.064,0.948,-0.122,-0.549,3.357
-0.456,-0.060,0.953,-0.977,-1.465,1.526
-0.456,-0.059,0.950,-0.793,-1.648,0.305
-0.450,-0.058,0.950,-1.038,-1.709,-0.671
-0.450,-0.057,0.947,-0.977,-2.197,-1.526
-0.438,-0.054,0.952,-1.160,-2.869,-2.197
-0.423,-0.045,0.945,-2.075,-2.991,-2.869
-0.408,-0.036,0.946,-2.686,-3.174,-3.479
-0.396,-0.035,0.950,-2.563,-3.662,-3.601
-0.382,-0.029,0.942,-2.747,-3.784,-3.296
-0.372,-0.028,0.940,-2.502,-4.272,-2.319
-0.381,-0.032,0.945,-0.854,-5.310,-0.793
-0.393,-0.032,0.938,1.099,-6.042,0.488
-0.421,-0.043,0.944,2.441,-8.423,1.038
-0.439,-0.052,0.959,1.892,-10.681,0.488
-0.439,-0.070,0.955,1.648,-10.986,-1.099
-0.446,-0.072,0.953,1.221,-11.108,-2.319
-0.442,-0.067,0.930,0.061,-10.010,-3.296
-0.433,-0.082,0.907,-1.099,-8.728,-5.066
-0.419,-0.094,0.871,0.366,-7.263,-6.042
-0.407,-0.072,0.831,0.244,-5.249,-4.761
-0.452,-0.046,0.770,-0.977,-5.005,-5.005

-0.340,-0.481,1.860,75.562,64.209,39.856
-0.302,-0.480,1.891,72.205,39.978,27.893
-0.340,-0.527,2.108,59.753,11.230,18.066
-0.374,-0.567,2.185,42.969,-1.831,12.268
-0.423,-0.556,2.259,24.170,-7.019,12.512
-0.473,-0.573,2.271,3.113,-6.165,9.155
-0.514,-0.561,2.204,-14.404,1.404,6.531
-0.552,-0.528,2.071,-29.114,10.010,4.089
-0.550,-0.468,1.915,-39.795,14.221,1.343
-0.539,-0.409,1.795,-44.006,12.573,-1.160
-0.487,-0.368,1.669,-44.312,7.935,-2.869
-0.494,-0.328,1.542,-39.307,0.732,-2.625
-0.479,-0.298,1.441,-33.508,-10.376,-1.343
-0.447,-0.313,1.377,-27.954,-23.621,-2.563
-0.417,-0.310,1.387,-21.729,-36.499,-3.845
-0.390,-0.301,1.382,-16.113,-44.067,-5.066
-0.355,-0.299,1.409,-13.123,-50.049,-6.653
-0.362,-0.287,1.476,-14.282,-54.565,-8.240
-0.331,-0.272,1.500,-17.578,-54.993,-10.193
-0.321,-0.252,1.499,-22.461,-54.321,-11.841
-0.277,-0.229,1.486,-29.358,-54.626,-13.367
-0.272,-0.212,1.427,-34.241,-54.016,-15.137
-0.224,-0.208,1.317,-37.598,-54.260,-17.944
-0.227,-0.170,1.206,-36.865,-58.716,-19.165
-0.197,-0.161,1.081,-36.072,-66.650,-22.217
-0.177,-0.150,0.985,-34.302,-72.937,-24.658
-0.165,-0.122,0.923,-29.785,-78.064,-25.940
-0.152,-0.112,0.811,-26.733,-79.529,-29.114
-0.137,-0.107,0.732,-26.489,-81.421,-32.227
-0.089,-0.082,0.651,-25.452,-81.116,-34.607
-0.043,-0.044,0.556,-23.132,-76.416,-34.546
-0.036,-0.049,0.465,-20.630,-70.801,-33.875
-0.036,-0.033,0.402,-20.447,-68.115,-32.166
-0.037,-0.025,0.347,-20.752,-63.782,-28.931
-0.049,-0.027,0.331,-18.982,-58.838,-25.513
-0.077,-0.033,0.337,-16.052,-53.284,-21.240
-0.113,-0.035,0.329,-13.611,-45.532,-17.212
-0.144,-0.043,0.327,-12.329,-38.086,-14.465
-0.167,-0.046,0.335,-11.536,-31.433,-13.062
-0.192,-0.048,0.372,-9.338,-26.672,-12.634
-0.205,-0.043,0.371,-6.775,-21.729,-12.695
-0.221,-0.032,0.363,-1.953,-18.066,-12.512
-0.236,-0.034,0.413,2.319,-18.250,-12.756
-0.256,-0.037,0.470,6.287,-17.212,-12.573
-0.276,-0.049,0.526,10.071,-13.428,-11.963
-0.294,-0.059,0.598,11.841,-7.385,-10.986
-0.320,-0.050,0.674,11.719,-1.099,-9.155
-0.333,-0.048,0.716,9.399,6.042,-8.362
-0.339,-0.050,0.758,5.920,12.024,-8.301
-0.339,-0.048,0.821,1.221,15.991,-8.057
-0.347,-0.044,0.858,-1.282,19.592,-7.446
-0.351,-0.045,0.880,-2.686,22.766,-6.592
-0.360,-0.048,0.917,-3.296,23.743,-5.737
-0.379,-0.036,0.939,-3.174,23.926,-4.333
-0.393,-0.037,0.939,-3.296,22.888,-3.662
-0.410,-0.037,0.962,-4.456,19.531,-3.540
-0.410,-0.028,0.979,-5.859,16.541,-3.479
-0.413,-0.037,0.981,-5.554,15.015,-4.211
-0.416,-0.028,0.993,-5.310,13.184,-3.906
-0.419,-0.035,1.001,-4.578,11.475,-3.906
-0.417,-0.033,1.010,-4.150,9.827,-3.601
-0.413,-0.034,1.013,-3.601,7.874,-3.052
-0.410,-0.035,1.012,-3.052,6.104,-2.380
-0.411,-0.040,1.007,-3.235,4.883,-1.831
-0.412,-0.045,1.005,-2.869,3.845,-1.282
-0.420,-0.055,1.001,-1.709,2.441,-0.549
-0.418,-0.064,0.997,-2.197,0.488,-0.610
-0.412,-0.063,0.989,-2.991,-0.854,-0.916
-0.407,-0.074,0.982,-2.502,-1.892,-1.465
-0.407,-0.068,0.972,-1.892,-2.258,-1.648
-0.398,-0.065,0.952,-2.808,-2.136,-2.075
-0.390,-0.066,0.936,-2.686,-2.441,-2.808
-0.379,-0.057,0.907,-3.113,-2.563,-3.357
-0.360,-0.053,0.884,-4.272,-2.075,-3.906
-0.352,-0.056,0.896,-3.906,-2.686,-4.028
-0.349,-0.052,0.903,-2.991,-2.930,-3.540
-0.352,-0.052,0.887,-1.953,-2.380,-3.174
-0.356,-0.047,0.875,-1.282,-1.648,-3.113
-0.348,-0.035,0.859,-1.343,-0.732,-3.113
-0.335,-0.036,0.845,-1.160,0.122,-2.747
-0.337,-0.028,0.848,-0.732,0.366,-2.014
-0.334,-0.023,0.855,-0.732,0.793,-1.404
-0.337,-0.030,0.865,-0.488,0.977,-1.038
-0.347,-0.032,0.873,0.793,1.526,-0.061
-0.356,-0.038,0.872,0.488,2.136,1.038
-0.363,-0.049,0.896,-0.610,2.014,1.343
-0.375,-0.052,0.915,-0.732,2.441,1.404
-0.375,-0.050,0.921,-1.404,3.235,1.038
-0.375,-0.052,0.922,-1.648,3.357,0.671
-0.372,-0.057,0.940,-1.099,2.625,0.549
-0.382,-0.064,0.959,-0.793,1.770,0.854
-0.389,-0.067,0.964,-0.183,0.916,1.099
-0.400,-0.076,0.970,0.000,-0.183,0.916
-0.409,-0.077,0.977,-0.732,-1.221,0.671
-0.415,-0.073,0.975,-2.747,-1.526,-0.305
-0.414,-0.076,0.978,-3.357,-1.770,-1.526
-0.409,-0.073,0.987,-3.784,-2.197,-2.197
-0.407,-0.071,0.975,-3.662,-1.648,-2.625
-0.401,-0.067,0.954,-3.235,-1.465,-2.686
-0.401,-0.068,0.953,-2.319,-2.869,-2.625
-0.394,-0.065,0.952,-1.587,-3.784,-2.625
-0.401,-0.062,0.950,0.244,-4.700,-2.441
-0.388,-0.051,0.943,1.648,-5.676,-2.380
-0.383,-0.059,0.951,3.845,-8.057,-2.869
-0.388,-0.058,0.970,4.700,-10.376,-2.808
-0.391,-0.057,0.968,6.287,-11.230,-2.686
-0.393,-0.062,0.977,7.019,-12.756,-2.930
-0.393,-0.059,0.984,6.592,-13.245,-3.052
-0.387,-0.060,0.978,5.920,-12.390,-3.052
-0.385,-0.056,0.977,5.188,-11.780,-2.686
-0.386,-0.060,0.981,4.272,-12.085,-1.770
-0.397,-0.064,0.967,4.150,-11.230,-0.793
-0.406,-0.072,0.960,4.089,-11.536,0.122
-0.422,-0.082,0.958,4.700,-13.672,0.305
-0.426,-0.085,0.957,4.639,-16.174,0.000
-0.431,-0.095,0.962,5.371,-18.250,-0.977
-0.441,-0.104,0.946,5.981,-19.348,-1.831
-0.442,-0.111,0.921,4.822,-20.447,-2.930
-0.438,-0.114,0.919,2.502,-22.644,-4.578

-0.655,-0.715,2.213,92.834,90.759,107.971
-0.798,-1.114,2.340,91.919,44.800,67.261
-0.765,-1.099,2.715,72.327,14.099,44.006
-0.782,-0.794,2.668,62.927,30.762,44.434
-0.874,-0.694,2.129,50.354,40.649,20.935
-0.711,-0.610,2.335,14.832,-10.315,10.620
-0.665,-0.745,2.418,-14.709,-34.363,-20.752
-0.699,-0.684,2.157,-23.315,-7.202,-24.658
-0.660,-0.546,1.870,-33.875,12.024,-19.775
-0.550,-0.495,1.735,-42.297,7.446,-21.118
-0.521,-0.450,1.659,-43.091,0.427,-23.804
-0.461,-0.390,1.506,-41.260,-2.136,-23.437
-0.418,-0.396,1.414,-37.598,-10.132,-23.560
-0.394,-0.394,1.334,-32.654,-19.592,-21.057
-0.381,-0.339,1.289,-27.588,-28.381,-16.846
-0.351,-0.362,1.276,-24.658,-37.109,-15.808
-0.362,-0.352,1.303,-22.278,-42.603,-14.038
-0.378,-0.341,1.335,-21.667,-45.898,-11.780
-0.358,-0.337,1.327,-23.010,-46.082,-11.963
-0.328,-0.321,1.382,-24.536,-48.279,-11.963
-0.343,-0.312,1.431,-24.841,-49.316,-11.292
-0.338,-0.283,1.401,-27.710,-47.546,-11.597
-0.332,-0.293,1.468,-32.593,-52.490,-14.893
-0.319,-0.302,1.455,-36.316,-53.162,-18.921
-0.309,-0.309,1.415,-38.269,-52.795,-21.545
-0.251,-0.287,1.361,-39.551,-56.763,-23.376
-0.235,-0.232,1.290,-38.696,-61.096,-23.193
-0.220,-0.209,1.175,-37.354,-65.002,-25.391
-0.212,-0.213,1.075,-38.269,-68.665,-28.748
-0.208,-0.177,0.954,-38.879,-67.932,-31.372
-0.186,-0.147,0.808,-39.551,-64.331,-34.973
-0.150,-0.106,0.631,-38.574,-63.110,-38.940
-0.117,-0.089,0.536,-37.354,-68.787,-42.297
-0.071,-0.068,0.471,-38.574,-71.289,-45.044
-0.051,-0.050,0.377,-34.058,-66.528,-44.922
-0.046,-0.002,0.275,-30.090,-62.073,-42.175
-0.036,0.014,0.206,-28.381,-60.730,-39.429
-0.041,0.030,0.165,-25.574,-58.655,-36.316
-0.055,0.043,0.152,-21.057,-55.115,-31.494
-0.083,0.051,0.105,-16.724,-47.241,-25.818
-0.118,0.035,0.096,-13.550,-41.260,-19.470
-0.164,0.021,0.138,-11.841,-36.621,-13.428
-0.213,0.012,0.189,-9.338,-29.297,-8.362
-0.251,0.011,0.221,-5.859,-21.057,-5.127
-0.276,0.003,0.255,-2.380,-14.282,-3.479
-0.299,-0.009,0.295,1.648,-8.911,-2.563
-0.322,-0.022,0.344,7.751,-4.883,-1.465
-0.330,-0.044,0.443,11.353,-1.709,-0.671
-0.358,-0.058,0.563,14.587,2.136,0.793
-0.383,-0.067,0.674,15.198,6.165,2.319
-0.392,-0.067,0.741,12.573,11.292,2.991
-0.413,-0.081,0.806,10.376,15.381,2.686
-0.424,-0.075,0.854,7.263,18.921,2.869
-0.442,-0.093,0.870,4.822,23.010,1.953
-0.452,-0.089,0.912,2.502,24.292,0.061
-0.456,-0.087,0.937,-0.427,25.146,-1.526
-0.454,-0.086,0.960,-2.441,25.513,-2.869
-0.454,-0.082,1.001,-3.906,24.414,-3.662
-0.455,-0.086,1.020,-4.211,24.536,-4.456
-0.457,-0.079,1.002,-5.432,25.574,-4.395
-0.454,-0.062,1.016,-8.728,24.170,-4.150
-0.448,-0.060,1.027,-9.399,21.240,-4.517
-0.442,-0.059,1.017,-8.728,19.104,-4.272
-0.443,-0.051,1.016,-6.958,16.296,-3.845
-0.442,-0.052,1.024,-4.639,12.573,-3.296
-0.443,-0.045,1.002,-2.625,10.681,-3.052
-0.432,-0.039,0.990,-2.930,8.789,-2.991
-0.417,-0.042,1.001,-3.479,5.859,-3.174
-0.408,-0.043,1.009,-3.174,3.723,-2.563
-0.406,-0.050,1.000,-2.747,3.418,-1.648
-0.405,-0.050,0.986,-1.160,3.662,-0.671
-0.409,-0.050,0.970,-0.488,3.418,0.061
-0.403,-0.047,0.959,-1.465,2.869,0.244
-0.405,-0.050,0.959,-1.526,1.282,0.549
-0.403,-0.056,0.954,-1.282,0.183,0.977
-0.404,-0.059,0.950,-0.977,-0.488,1.160
-0.409,-0.063,0.930,-0.427,-0.427,1.099
-0.406,-0.056,0.888,-2.197,0.793,0.916
-0.399,-0.052,0.887,-4.639,-0.488,0.854
-0.395,-0.055,0.900,-5.066,-2.808,0.854
-0.395,-0.054,0.892,-4.822,-2.747,1.099
-0.405,-0.055,0.877,-3.296,-2.197,1.343
-0.410,-0.060,0.851,-2.136,-1.770,1.282
-0.411,-0.060,0.824,-1.892,-1.465,0.977
-0.407,-0.057,0.822,-2.686,-1.953,0.854
-0.404,-0.058,0.819,-2.441,-2.075,0.610
-0.400,-0.059,0.838,-1.831,-2.380,0.000
-0.399,-0.058,0.849,-1.282,-1.282,-0.122
-0.398,-0.054,0.831,0.488,1.465,0.122
-0.389,-0.052,0.834,0.732,3.113,0.305
-0.386,-0.052,0.850,1.648,3.357,0.854
-0.386,-0.059,0.870,2.136,3.296,1.892
-0.401,-0.059,0.909,2.625,2.258,2.930
-0.422,-0.071,0.914,3.174,2.502,3.540
-0.423,-0.071,0.912,1.404,3.113,3.479
-0.425,-0.076,0.933,0.061,2.197,2.869
-0.426,-0.079,0.955,0.305,1.343,2.319
-0.431,-0.079,0.958,0.854,1.465,2.136
-0.436,-0.081,0.931,1.526,1.160,1.282
-0.434,-0.081,0.941,0.366,0.000,0.000
-0.427,-0.079,0.950,-0.549,-0.671,-0.732
-0.420,-0.076,0.946,-0.549,-0.061,-0.916
-0.416,-0.074,0.936,0.000,0.366,-1.160
-0.417,-0.072,0.918,-0.061,0.549,-1.343
-0.412,-0.072,0.901,-0.977,0.122,-1.404
-0.409,-0.071,0.909,-1.648,-1.038,-1.221
-0.408,-0.073,0.921,-2.075,-1.831,-1.038
-0.410,-0.080,0.925,-1.282,-2.014,-0.854
-0.419,-0.082,0.920,-0.183,-1.892,-0.122
-0.426,-0.081,0.926,-0.183,-2.319,0.183
-0.430,-0.084,0.931,-0.305,-2.930,0.244
-0.442,-0.086,0.937,0.793,-3.479,0.000
-0.437,-0.080,0.948,0.549,-4.639,-0.610
-0.430,-0.082,0.953,1.526,-5.615,-1.465
-0.423,-0.077,0.962,2.197,-6.714,-1.648
-0.420,-0.076,0.966,2.991,-8.118,-1.282
-0.420,-0.081,0.970,3.357,-9.338,-0.916
-0.424,-0.085,0.982,3.418,-10.315,-0.793
-0.428,-0.090,0.984,3.174,-10.925,-0.488

-0.547,-0.723,2.205,84.534,62.439,58.960
-0.677,-0.723,2.355,74.097,46.448,43.640
-0.692,-0.639,2.412,54.077,37.354,31.006
-0.555,-0.612,2.447,28.687,30.090,14.404
-0.480,-0.524,2.357,6.165,34.119,5.066
-0.471,-0.418,2.122,-11.536,39.246,2.258
-0.379,-0.421,1.956,-28.259,28.259,-1.709
-0.401,-0.360,1.846,-35.645,13.855,-1.892
-0.435,-0.322,1.751,-36.743,1.709,-2.686
-0.452,-0.427,1.731,-37.537,-8.179,-5.493
-0.450,-0.359,1.639,-36.133,-7.935,0.427
-0.488,-0.357,1.504,-32.104,-5.188,4.333
-0.498,-0.376,1.418,-30.212,-9.583,3.662
-0.483,-0.385,1.354,-29.419,-17.944,3.357
-0.492,-0.394,1.311,-25.696,-25.024,3.662
-0.487,-0.400,1.273,-21.667,-31.006,3.174
-0.493,-0.406,1.267,-16.968,-37.659,1.892
-0.494,-0.403,1.315,-14.160,-44.922,-0.366
-0.497,-0.394,1.360,-12.695,-49.377,-3.052
-0.479,-0.389,1.410,-13.367,-52.490,-7.202
-0.478,-0.369,1.491,-17.395,-56.091,-12.329
-0.449,-0.353,1.500,-22.949,-58.228,-18.494
-0.408,-0.341,1.489,-29.053,-61.035,-24.414
-0.364,-0.324,1.473,-34.241,-64.453,-28.748
-0.354,-0.302,1.417,-37.476,-65.796,-31.738
-0.323,-0.279,1.312,-39.001,-67.627,-34.119
-0.298,-0.282,1.227,-38.940,-71.411,-37.231
-0.280,-0.271,1.169,-39.612,-73.792,-38.574
-0.224,-0.167,1.036,-40.344,-68.848,-39.368
-0.175,-0.155,0.881,-40.222,-66.223,-43.213
-0.146,-0.138,0.759,-38.330,-68.848,-46.143
-0.112,-0.102,0.638,-36.926,-70.923,-47.119
-0.069,-0.063,0.541,-34.912,-71.716,-47.119
-0.064,-0.034,0.486,-30.212,-71.106,-46.326
-0.039,-0.016,0.399,-25.574,-67.383,-44.983
-0.028,0.009,0.290,-21.301,-62.012,-41.626
-0.041,0.028,0.250,-18.982,-61.096,-36.926
-0.056,0.035,0.234,-18.555,-58.960,-32.654
-0.085,0.043,0.198,-15.869,-52.673,-26.917
-0.120,0.050,0.174,-12.878,-45.471,-21.240
-0.160,0.035,0.183,-10.437,-39.551,-16.968
-0.193,0.035,0.197,-7.141,-33.752,-13.000
-0.221,0.022,0.217,-2.441,-28.259,-9.766
-0.251,0.010,0.262,2.808,-24.292,-7.629
-0.281,-0.007,0.324,8.850,-21.423,-5.981
-0.309,-0.032,0.392,15.259,-18.555,-5.188
-0.341,-0.048,0.474,19.043,-15.564,-4.456
-0.357,-0.065,0.559,18.860,-10.559,-4.883
-0.358,-0.069,0.625,16.235,-3.662,-5.127
-0.363,-0.062,0.694,12.146,2.258,-4.089
-0.381,-0.069,0.765,8.850,7.019,-3.540
-0.398,-0.081,0.822,5.798,11.536,-2.563
-0.420,-0.079,0.818,3.540,18.677,-1.465
-0.440,-0.082,0.818,1.831,22.949,-0.854
-0.448,-0.093,0.857,-1.160,23.132,-1.282
-0.464,-0.092,0.904,-2.808,23.193,-1.404
-0.484,-0.095,0.935,-2.502,23.865,-1.465
-0.497,-0.097,0.954,-3.723,24.292,-2.075
-0.503,-0.095,0.947,-6.348,24.292,-2.930
-0.508,-0.090,0.938,-9.277,23.315,-4.211
-0.499,-0.089,0.948,-11.841,21.057,-5.737
-0.484,-0.067,0.974,-12.207,18.555,-6.226
-0.473,-0.049,0.962,-9.399,17.395,-7.324
-0.469,-0.055,0.962,-6.653,14.282,-8.789
-0.454,-0.046,0.963,-6.348,10.925,-9.033
-0.444,-0.043,0.951,-5.737,9.460,-8.301
-0.433,-0.043,0.960,-5.005,7.996,-6.958
-0.437,-0.048,0.993,-4.333,6.714,-5.127
-0.446,-0.044,1.003,-2.747,6.226,-3.479
-0.450,-0.047,0.994,-1.709,5.798,-2.808
-0.448,-0.044,0.981,-1.770,4.883,-2.808
-0.445,-0.037,0.944,-2.380,3.723,-3.235
-0.426,-0.019,0.916,-5.066,2.441,-3.967
-0.412,-0.022,0.907,-6.531,0.183,-4.700
-0.396,-0.025,0.895,-5.615,-0.732,-4.333
-0.391,-0.027,0.893,-4.089,-0.549,-3.174
-0.399,-0.025,0.891,-2.197,-0.061,-2.075
-0.410,-0.026,0.877,-1.587,0.366,-1.221
-0.418,-0.028,0.867,-1.953,0.366,-0.366
-0.428,-0.034,0.871,-2.869,-0.549,0.244
-0.432,-0.040,0.882,-2.014,-0.854,0.366
-0.435,-0.040,0.875,-1.038,-0.305,0.366
-0.434,-0.043,0.871,-0.183,0.000,0.183
-0.434,-0.044,0.872,0.305,0.061,0.122
-0.430,-0.045,0.870,0.549,-0.061,0.305
-0.430,-0.052,0.864,-0.427,0.366,-0.061
-0.429,-0.051,0.870,-2.747,0.916,-0.305
-0.425,-0.044,0.878,-4.700,0.793,-0.610
-0.421,-0.039,0.877,-4.089,1.404,-0.977
-0.414,-0.035,0.873,-2.808,1.770,-1.038
-0.411,-0.039,0.883,-1.709,1.404,-0.549
-0.415,-0.043,0.894,-0.977,0.854,0.061
-0.422,-0.048,0.895,-0.610,1.221,1.099
-0.428,-0.051,0.892,-0.244,1.404,2.014
-0.434,-0.058,0.898,0.366,1.648,2.502
-0.438,-0.058,0.900,1.038,2.136,2.686
-0.441,-0.059,0.898,1.709,2.075,2.625
-0.442,-0.058,0.897,1.709,1.282,2.197
-0.445,-0.060,0.899,1.892,0.305,1.526
-0.442,-0.059,0.889,0.916,0.183,0.610
-0.434,-0.055,0.888,-0.793,-0.244,0.061
-0.426,-0.048,0.893,-1.221,-1.221,-0.061
-0.419,-0.050,0.891,-0.793,-1.221,-0.122
-0.421,-0.054,0.886,0.549,-1.099,0.549
-0.427,-0.062,0.883,1.404,-1.160,1.221
-0.432,-0.067,0.887,1.526,-1.282,1.587
-0.439,-0.070,0.899,1.221,-1.404,1.709
-0.439,-0.071,0.914,-0.061,-1.343,0.916
-0.437,-0.070,0.915,-0.122,-0.916,0.244
-0.435,-0.068,0.907,0.183,-0.366,-0.183
-0.435,-0.069,0.899,1.221,-0.671,-0.488
-0.435,-0.067,0.918,1.221,-1.709,-0.671
-0.435,-0.070,0.936,1.404,-2.625,-0.854
-0.437,-0.069,0.949,2.136,-2.808,-0.732
-0.443,-0.065,0.963,1.892,-3.235,-0.732
-0.447,-0.066,0.973,1.465,-3.540,-0.549
-0.447,-0.066,0.980,0.854,-3.845,-0.488
-0.451,-0.065,0.992,0.427,-4.822,0.061
-0.454,-0.062,1.014,0.488,-6.714,0.488

-0.507,-0.600,1.670,43.884,132.690,71.594
-0.529,-0.575,1.741,48.340,117.188,57.678
-0.511,-0.564,1.868,50.537,96.619,43.701
-0.582,-0.518,1.967,49.133,75.439,31.982
-0.549,-0.513,2.054,38.574,54.077,18.738
-0.481,-0.537,2.143,21.790,39.856,4.822
-0.440,-0.486,2.167,4.944,35.950,-1.526
-0.413,-0.445,2.086,-10.559,34.424,-3.052
-0.408,-0.426,1.984,-24.353,28.076,-3.479
-0.401,-0.407,1.895,-35.522,18.677,-2.258
-0.431,-0.395,1.808,-40.222,11.353,-0.122
-0.465,-0.385,1.671,-39.246,8.423,2.747
-0.501,-0.375,1.538,-35.400,5.188,3.906
-0.527,-0.364,1.430,-29.663,-1.465,3.235
-0.522,-0.361,1.363,-23.499,-11.292,0.916
-0.508,-0.361,1.348,-16.663,-23.804,-1.038
-0.505,-0.363,1.353,-11.963,-34.668,-2.014
-0.497,-0.372,1.375,-10.071,-41.809,-3.479
-0.490,-0.371,1.411,-10.559,-46.265,-5.127
-0.481,-0.377,1.485,-13.550,-49.377,-7.568
-0.451,-0.371,1.537,-20.020,-50.293,-10.986
