aX,aY,aZ,gX,gY,gZ
0.230,1.244,1.377,22.583,-31.982,-7.690
0.272,1.225,1.415,18.250,-39.063,5.310
0.335,1.179,1.385,4.150,-44.312,20.752
0.333,1.092,1.267,-11.108,-49.377,36.804
0.340,0.921,1.091,-21.790,-53.894,49.866
0.302,0.768,0.952,-25.269,-57.922,61.646
0.218,0.513,0.828,-21.240,-57.434,71.106
0.175,0.267,0.758,-13.245,-52.917,77.332
0.094,0.020,0.759,-2.747,-44.434,86.670
-0.004,-0.165,0.843,2.869,-35.828,97.229
-0.049,-0.390,0.918,0.854,-28.687,108.459
-0.096,-0.522,0.953,-5.493,-23.010,116.821
-0.096,-0.599,0.978,-14.526,-14.954,118.774
-0.114,-0.699,0.980,-24.475,-6.165,118.713
-0.138,-0.768,0.967,-32.410,0.488,119.080
-0.183,-0.846,0.949,-38.818,7.141,120.483
-0.230,-0.966,0.946,-41.077,12.695,118.286
-0.289,-1.109,0.960,-37.354,16.113,107.117
-0.361,-1.116,1.004,-29.053,17.517,85.388
-0.376,-1.156,1.037,-22.156,16.418,62.195
-0.376,-1.202,1.045,-18.555,14.221,38.452
-0.309,-1.173,1.041,-16.968,13.489,15.808
-0.244,-1.146,1.065,-14.160,13.489,1.953
-0.272,-1.160,1.032,-12.695,11.780,-7.507
-0.237,-1.096,1.005,-13.489,9.399,-14.343
-0.205,-1.024,0.979,-13.916,6.042,-24.597
-0.185,-0.952,0.941,-11.047,2.869,-36.072
-0.173,-0.904,0.904,-6.958,-1.160,-46.204
-0.150,-0.856,0.885,-2.625,-3.235,-55.237
-0.152,-0.828,0.888,1.587,-4.456,-63.293
-0.142,-0.812,0.926,5.737,-4.089,-70.618
-0.125,-0.799,0.981,7.996,-0.671,-77.271
-0.087,-0.768,1.050,8.728,4.089,-83.984
-0.064,-0.733,1.118,8.423,8.423,-91.003
-0.009,-0.670,1.169,6.836,12.878,-97.473
0.024,-0.615,1.183,5.371,16.357,-101.868
0.034,-0.543,1.176,4.333,17.151,-105.469
0.033,-0.460,1.179,4.944,17.700,-107.239
0.025,-0.378,1.140,4.944,16.724,-109.375
0.018,-0.272,1.118,4.272,13.000,-110.168
0.033,-0.139,1.111,1.953,9.705,-109.619
0.009,-0.021,1.047,-1.282,10.498,-109.680
0.016,0.172,1.073,-4.639,11.902,-112.854
0.056,0.301,1.070,-3.723,14.099,-114.502
0.105,0.453,1.066,0.793,18.188,-113.281
0.140,0.573,1.096,9.705,20.691,-110.352
0.195,0.617,1.160,22.522,17.944,-107.300
0.200,0.677,1.202,33.630,11.169,-101.624
0.224,0.698,1.253,40.649,3.296,-93.445
0.197,0.779,1.258,40.283,-3.540,-84.045
0.135,0.906,1.217,33.264,-9.460,-74.219
0.116,1.075,1.174,26.978,-14.648,-67.261
0.118,1.036,1.137,21.179,-20.874,-67.749
0.150,1.070,1.049,8.728,-21.423,-63.171
0.167,1.133,0.972,-2.625,-19.348,-51.270
0.174,1.146,0.912,-9.460,-20.935,-36.499
0.160,1.129,0.865,-11.536,-19.958,-20.752
0.135,1.102,0.838,-12.146,-16.296,-4.578
0.106,1.014,0.827,-11.292,-14.282,8.911
0.111,0.981,0.833,-11.292,-14.343,18.311
0.100,0.897,0.850,-11.292,-9.338,30.823
0.077,0.805,0.872,-12.085,-5.615,39.307
0.090,0.734,0.892,-12.085,-3.967,44.861
0.100,0.661,0.922,-11.536,-0.427,51.819
0.119,0.573,0.959,-11.047,3.967,59.875
0.132,0.496,0.987,-12.146,5.859,67.932
0.136,0.423,1.036,-12.634,7.019,73.303
0.134,0.351,1.058,-15.137,8.179,76.416
0.158,0.244,1.082,-18.677,11.902,78.979
0.120,0.132,1.113,-23.132,9.766,83.313
0.173,0.089,1.111,-23.499,9.949,88.196
0.023,-0.082,1.159,-18.555,0.305,84.473
-0.025,-0.253,1.137,-12.756,-12.878,71.289
-0.050,-0.377,1.133,-10.803,-8.850,69.580
-0.096,-0.470,1.099,-14.954,-1.099,73.853
-0.177,-0.510,1.084,-16.113,1.770,75.500
-0.239,-0.584,1.079,-14.709,1.526,70.801
-0.286,-0.641,1.071,-13.489,1.465,62.317
-0.332,-0.662,1.055,-11.353,1.770,53.650
-0.348,-0.644,1.023,-10.193,2.136,44.006
-0.359,-0.610,1.004,-8.057,3.296,33.142
-0.324,-0.553,1.002,-6.226,4.395,21.484
-0.280,-0.493,1.010,-3.418,5.432,10.925
-0.274,-0.439,1.030,-0.305,6.409,2.686
-0.241,-0.373,1.047,2.258,8.057,-3.601
-0.213,-0.299,1.061,3.845,10.620,-8.545
-0.198,-0.244,1.080,4.761,11.780,-12.512
-0.161,-0.198,1.094,5.066,11.658,-14.771
-0.145,-0.149,1.106,5.432,11.414,-14.099
-0.145,-0.114,1.128,5.737,10.986,-13.123
-0.138,-0.086,1.144,6.287,9.705,-12.268
-0.140,-0.052,1.151,6.104,8.179,-11.169
-0.152,-0.030,1.160,5.676,6.226,-10.864
-0.170,-0.021,1.148,5.005,4.639,-11.292
-0.170,0.004,1.138,2.441,3.418,-12.817
-0.158,0.027,1.119,0.610,2.869,-14.404
-0.148,0.055,1.103,0.244,2.502,-15.076
-0.140,0.074,1.090,-0.244,2.258,-15.015
-0.128,0.096,1.083,-0.916,2.075,-14.771
-0.117,0.105,1.077,-0.732,2.075,-14.038
-0.107,0.124,1.076,0.061,2.075,-12.695
-0.097,0.123,1.086,1.038,2.319,-10.925
-0.093,0.117,1.100,1.770,2.686,-8.850
-0.088,0.105,1.111,1.099,2.197,-6.470
-0.099,0.087,1.117,-0.305,1.038,-4.211
-0.103,0.072,1.115,-1.221,-0.488,-2.747
-0.107,0.061,1.108,-2.197,-2.319,-2.014
-0.116,0.050,1.099,-2.686,-2.991,-1.404
-0.125,0.040,1.091,-3.479,-3.052,-1.221
-0.129,0.031,1.088,-3.601,-2.991,-1.099
-0.128,0.026,1.082,-3.479,-2.319,-1.221
-0.126,0.019,1.079,-3.967,-1.099,-1.648
-0.122,0.021,1.079,-4.883,0.244,-2.197
-0.110,0.029,1.082,-4.822,1.160,-2.869
-0.109,0.028,1.080,-4.639,1.343,-3.662
-0.101,0.030,1.077,-4.456,0.854,-4.150
-0.096,0.035,1.073,-4.395,0.122,-4.639
-0.084,0.039,1.070,-3.967,0.122,-5.005
-0.080,0.043,1.068,-3.845,0.183,-5.066

0.225,1.470,1.068,13.977,-45.166,-22.522
0.240,1.593,1.042,8.301,-47.974,-15.442
0.233,1.630,1.034,5.554,-47.607,-24.902
0.270,1.630,1.083,3.052,-38.330,-61.279
0.458,1.629,1.100,-12.939,-24.292,-91.553
0.617,1.451,1.000,-22.034,-6.592,-102.661
0.723,1.264,0.915,-22.583,10.620,-98.267
0.731,1.187,0.867,-29.541,5.493,-73.547
0.721,0.854,0.867,-31.189,-7.874,-53.650
0.671,0.607,0.807,-25.635,-5.310,-38.391
0.409,0.331,0.740,-21.423,-7.019,-6.592
0.207,0.161,0.719,-15.808,-13.550,27.039
0.161,-0.053,0.629,-12.085,-13.062,35.217
0.260,-0.127,0.568,-9.888,-7.446,57.495
0.256,-0.204,0.622,1.038,-2.014,91.553
0.112,-0.355,0.779,16.907,8.850,124.268
-0.144,-0.600,0.990,28.931,20.447,148.560
-0.437,-0.872,1.254,32.227,31.555,161.194
-0.708,-1.051,1.472,25.940,50.171,162.109
-0.820,-1.167,1.562,19.470,80.322,155.090
-0.802,-1.176,1.578,14.038,107.788,141.846
-0.651,-1.097,1.520,12.939,124.512,122.620
-0.514,-1.011,1.460,16.296,123.657,98.511
-0.406,-0.969,1.418,20.630,109.009,70.984
-0.348,-0.970,1.429,20.020,80.017,38.452
-0.355,-1.001,1.438,18.433,47.424,12.024
-0.383,-1.031,1.440,15.320,20.142,-3.296
-0.396,-1.046,1.399,12.573,6.470,-12.390
-0.405,-1.039,1.352,11.902,0.916,-20.386
-0.427,-1.015,1.291,13.916,1.831,-31.677
-0.505,-0.999,1.208,14.526,7.263,-43.274
-0.464,-0.946,1.129,9.277,4.639,-38.818
-0.441,-0.870,1.069,1.892,-9.888,-26.855
-0.418,-0.822,1.043,3.113,-11.108,-26.611
-0.353,-0.765,1.042,5.737,-8.118,-33.142
-0.268,-0.727,1.033,6.897,-11.719,-37.903
-0.205,-0.672,1.041,8.240,-12.756,-39.551
-0.168,-0.593,1.081,10.803,-9.094,-38.513
-0.162,-0.546,1.100,13.550,-3.723,-37.048
-0.175,-0.488,1.082,12.756,1.709,-38.879
-0.168,-0.437,1.042,10.803,6.165,-42.847
-0.126,-0.388,1.035,10.620,11.292,-48.279
-0.061,-0.314,1.034,10.742,17.883,-54.810
0.013,-0.220,1.018,9.460,23.437,-62.134
0.133,-0.058,1.014,6.104,23.987,-70.313
0.229,0.096,1.024,4.883,21.729,-77.209
0.353,0.306,1.028,5.188,17.334,-80.444
0.387,0.418,1.041,10.925,11.536,-81.116
0.438,0.518,1.065,14.587,8.118,-85.571
0.443,0.568,1.082,15.808,4.211,-87.158
0.466,0.655,1.062,12.207,3.540,-87.830
0.439,0.697,1.053,11.108,1.709,-86.060
0.439,0.779,1.014,8.606,0.732,-84.412
0.427,0.849,0.995,8.362,-0.061,-81.299
0.390,0.870,0.987,8.728,1.099,-74.524
0.369,0.917,0.970,4.089,-0.061,-73.059
0.381,0.959,0.971,0.305,0.732,-70.068
0.379,1.034,0.987,-2.319,-5.005,-65.430
0.390,1.124,1.018,-1.160,-14.404,-62.073
0.433,1.197,1.027,2.991,-17.212,-57.556
0.497,1.228,1.004,7.263,-19.958,-49.988
0.583,1.264,0.982,8.545,-29.297,-39.734
0.612,1.304,1.013,8.118,-45.349,-25.940
0.614,1.301,1.059,7.202,-54.321,-12.329
0.671,1.294,1.081,4.272,-53.101,0.488
0.705,1.263,1.067,3.113,-45.227,13.916
0.679,1.181,1.065,0.427,-38.635,28.503
0.630,1.062,1.060,-3.601,-30.151,42.358
0.607,0.928,1.033,-8.728,-23.804,55.359
0.586,0.759,1.047,-11.047,-17.883,66.406
0.493,0.572,1.062,-10.803,-9.705,77.209
0.358,0.419,1.087,-12.329,-2.441,89.294
0.240,0.231,1.046,-13.489,5.798,98.938
0.126,0.047,1.026,-12.878,11.963,106.018
0.007,-0.125,1.030,-9.827,15.198,109.192
-0.121,-0.311,1.093,-4.639,16.541,108.704
-0.211,-0.462,1.112,-0.366,17.212,105.469
-0.351,-0.572,1.170,-2.808,9.705,94.910
-0.442,-0.669,1.211,-10.193,-0.488,78.796
-0.494,-0.735,1.270,-14.221,-3.601,66.772
-0.452,-0.724,1.270,-0.793,25.330,71.533
-0.398,-0.709,1.244,17.090,74.219,76.538
-0.122,-0.631,1.046,26.001,94.299,88.745
-0.146,-0.458,1.043,16.357,42.236,102.478
-0.169,-0.468,1.114,1.587,-20.996,79.346
-0.144,-0.437,1.101,-10.864,-40.405,94.482
-0.240,-0.537,1.116,-18.982,-46.631,85.571
-0.248,-0.551,1.107,-9.033,-31.982,29.480
-0.254,-0.461,1.085,-14.038,-19.775,-9.460
-0.182,-0.315,1.111,-15.503,-10.742,-23.193
-0.131,-0.237,1.081,-9.888,-10.986,-31.433
-0.084,-0.119,1.054,-7.019,-16.052,-39.185
-0.071,-0.037,1.040,-3.174,-31.189,-52.185
-0.012,-0.028,1.067,3.601,-49.255,-62.561
-0.056,-0.022,1.164,13.367,-56.213,-67.139
-0.123,-0.031,1.240,21.851,-39.551,-68.604
-0.167,-0.113,1.242,24.536,-9.338,-67.505
-0.240,-0.067,1.328,18.372,16.174,-61.462
-0.183,-0.088,1.183,14.587,47.302,-60.059
-0.117,-0.031,1.157,-2.869,32.288,-48.645
-0.112,0.032,1.172,-15.442,10.803,-28.625
-0.086,0.067,1.128,-20.203,12.695,-21.301
0.027,0.092,1.032,-19.653,20.142,-16.602
-0.023,0.134,1.025,-17.212,15.686,-4.822
-0.052,0.134,1.032,-15.625,10.681,-2.197
-0.056,0.165,1.035,-14.038,7.751,-0.916
-0.072,0.160,1.029,-11.169,6.104,-1.160
-0.070,0.168,1.065,-9.399,2.869,-0.977
-0.056,0.172,1.068,-4.517,9.277,-0.793
-0.053,0.153,1.058,-1.587,15.259,-1.526
-0.060,0.145,1.039,-1.404,13.000,-1.465
-0.077,0.145,1.060,-2.869,6.653,-2.258
-0.055,0.144,1.060,-2.258,5.371,-4.272
-0.026,0.138,1.073,-0.793,5.859,-5.005
-0.030,0.135,1.100,1.587,5.981,-4.700
-0.020,0.121,1.102,4.150,8.301,-5.371
-0.015,0.124,1.139,4.822,3.845,-5.127
0.006,0.104,1.124,7.080,5.432,-5.493
0.010,0.094,1.137,7.202,3.906,-4.639

0.641,1.442,1.061,8.972,-31.250,5.005
0.821,1.529,1.100,17.700,-38.330,16.052
0.874,1.531,1.159,22.278,-45.776,27.527
0.884,1.445,1.146,21.301,-47.424,43.579
0.905,1.313,1.089,14.282,-44.189,66.772
0.865,1.137,1.000,5.859,-40.833,91.125
0.737,0.943,0.907,-0.427,-38.391,111.511
0.561,0.717,0.840,-2.808,-39.063,123.535
0.375,0.478,0.807,1.709,-38.391,125.488
0.175,0.205,0.829,10.437,-37.231,120.483
-0.024,-0.098,0.872,20.752,-32.654,112.732
-0.188,-0.370,0.953,27.710,-26.306,112.488
-0.291,-0.597,1.045,31.067,-18.494,113.098
-0.388,-0.791,1.083,31.311,-12.207,108.276
-0.453,-0.969,1.123,25.940,-14.526,105.225
-0.447,-1.036,1.177,22.888,-21.057,116.028
-0.489,-1.071,1.222,24.292,-15.381,123.596
-0.565,-1.153,1.262,17.700,-15.015,110.840
-0.640,-1.208,1.293,6.287,-22.217,80.811
-0.693,-1.258,1.303,-2.625,-27.832,43.152
-0.699,-1.275,1.301,-8.911,-29.419,13.611
-0.669,-1.269,1.273,-11.414,-26.306,-4.089
-0.638,-1.237,1.236,-10.437,-21.118,-16.418
-0.555,-1.254,1.206,-2.380,-13.000,-17.700
-0.563,-1.223,1.168,5.371,-1.343,-13.062
-0.500,-1.208,1.059,3.601,5.127,-18.433
-0.458,-1.150,0.995,1.038,9.827,-18.311
-0.507,-1.093,0.946,0.000,15.869,-18.982
-0.524,-1.051,0.852,-1.404,24.109,-24.170
-0.512,-1.002,0.791,-4.700,21.118,-32.104
-0.497,-0.972,0.800,-8.179,9.644,-41.565
-0.484,-0.942,0.883,-11.047,-4.883,-51.270
-0.440,-0.935,0.914,-11.353,-11.902,-61.157
-0.408,-0.934,0.944,-12.939,-13.367,-72.144
-0.349,-0.903,0.958,-12.146,-8.789,-83.191
-0.307,-0.839,1.002,-10.681,-2.197,-91.370
-0.253,-0.792,1.026,-7.202,7.690,-96.130
-0.178,-0.704,1.050,-7.629,18.616,-96.619
-0.097,-0.567,1.058,-10.193,27.039,-95.154
0.024,-0.380,1.079,-13.855,34.851,-93.933
0.144,-0.146,1.076,-13.000,43.396,-89.722
0.235,0.018,1.086,-6.836,49.805,-85.510
0.309,0.161,1.093,-0.793,53.162,-82.214
0.381,0.282,1.091,6.165,54.993,-78.491
0.384,0.400,1.144,12.695,54.260,-75.439
0.451,0.541,1.173,16.296,52.551,-76.965
0.502,0.659,1.189,10.193,49.988,-84.717
0.506,0.754,1.228,3.784,44.189,-89.478
0.548,0.864,1.229,-0.122,38.208,-87.097
0.556,0.975,1.219,-2.747,29.785,-81.299
0.549,1.067,1.178,-4.272,20.569,-74.036
0.546,1.134,1.132,-5.859,4.822,-64.941
0.490,1.199,1.089,-7.263,-11.414,-55.298
0.438,1.235,1.059,-7.996,-22.522,-48.767
0.387,1.260,1.067,-9.155,-34.058,-43.701
0.375,1.298,1.070,-8.545,-35.706,-40.649
0.378,1.295,1.020,-10.376,-31.006,-38.330
0.373,1.297,0.971,-12.573,-23.682,-30.396
0.391,1.279,0.921,-12.207,-17.029,-17.761
0.412,1.256,0.899,-10.742,-14.282,-4.272
0.414,1.197,0.910,-7.446,-12.573,10.437
0.397,1.111,0.912,-3.113,-6.836,26.245
0.387,1.000,0.909,0.488,-1.831,41.443
0.362,0.869,0.902,2.747,1.831,53.772
0.308,0.722,0.937,4.395,1.831,64.575
0.236,0.572,0.975,4.883,1.587,74.219
0.153,0.406,1.020,2.197,0.610,80.200
0.054,0.259,1.072,-1.404,-1.099,83.618
-0.034,0.125,1.086,-8.423,-3.052,84.961
0.027,0.037,1.017,-15.808,-3.296,82.764
-0.113,-0.071,1.045,-20.752,-4.333,75.500
-0.203,-0.230,1.040,-21.118,-2.930,67.749
-0.267,-0.334,1.045,-17.578,0.000,64.819
-0.308,-0.430,1.081,-13.672,4.639,64.148
-0.371,-0.521,1.156,-8.789,11.047,62.500
-0.372,-0.624,1.177,1.770,29.053,66.833
-0.326,-0.643,1.136,9.949,36.682,80.139
-0.324,-0.652,1.136,10.620,21.423,91.858
-0.332,-0.682,1.174,2.991,0.427,103.638
-0.298,-0.557,1.139,-10.437,-7.263,116.821
-0.285,-0.556,1.110,-12.024,0.061,88.562
-0.271,-0.582,1.079,-13.916,0.671,43.640
-0.273,-0.515,1.071,-16.296,3.662,10.010
-0.239,-0.466,1.029,-20.325,3.784,-12.695
-0.192,-0.380,1.023,-22.522,-0.671,-25.452
-0.115,-0.288,1.047,-19.043,-5.798,-33.752
-0.046,-0.207,1.079,-8.850,-11.902,-38.818
-0.002,-0.149,1.111,4.150,-16.785,-39.734
-0.009,-0.133,1.156,17.456,-17.029,-40.344
-0.088,-0.098,1.236,27.832,-7.385,-46.936
-0.124,-0.120,1.219,33.569,13.611,-59.814
-0.073,-0.099,1.186,27.222,23.376,-54.260
-0.120,-0.076,1.140,20.569,31.860,-46.326
-0.079,-0.071,1.090,11.169,26.062,-34.058
-0.127,-0.024,1.099,-1.831,0.977,-7.874
-0.133,0.025,1.100,-5.249,-0.916,-6.165
-0.121,0.046,1.048,-6.531,1.526,-7.935
-0.116,0.080,1.012,-4.639,2.380,-8.301
-0.119,0.114,1.039,-3.967,-4.333,-8.240
-0.096,0.139,1.043,-1.953,-6.348,-8.789
-0.101,0.142,1.060,1.038,-0.916,-8.972
-0.098,0.148,1.066,2.991,4.517,-7.446
-0.089,0.162,1.079,1.526,4.150,-6.470
-0.084,0.174,1.090,0.061,4.761,-5.920
-0.077,0.179,1.093,-0.305,8.240,-5.737
-0.079,0.174,1.116,-0.732,8.606,-5.920
-0.071,0.166,1.130,-0.244,11.841,-5.432
-0.038,0.153,1.114,0.732,16.235,-4.822
-0.019,0.142,1.128,1.770,15.198,-3.662
-0.028,0.133,1.171,1.831,10.925,-2.808
-0.001,0.102,1.132,2.625,11.169,-2.441
-0.024,0.095,1.156,1.770,5.371,-1.038
-0.031,0.080,1.150,0.183,-1.404,-0.671
-0.023,0.070,1.133,-1.099,-4.395,-0.305
-0.043,0.057,1.124,-1.648,-6.592,-0.244
-0.053,0.045,1.109,-3.113,-6.653,-0.488
-0.060,0.038,1.088,-4.333,-6.470,-0.305
-0.068,0.031,1.094,-4.272,-8.850,-0.305
-0.089,0.012,1.110,-3.601,-9.827,-0.854

0.856,1.382,1.073,19.836,-40.588,-51.086
1.009,1.501,1.172,33.325,-62.073,-28.381
1.152,1.502,1.215,45.776,-70.740,-0.977
1.100,1.467,1.266,44.189,-69.641,30.334
0.988,1.371,1.274,30.090,-63.599,64.819
0.881,1.265,1.174,14.343,-48.889,98.328
0.742,1.106,1.051,1.221,-34.851,121.826
0.671,0.940,0.973,-5.859,-28.870,137.329
0.682,0.760,0.855,-5.737,-22.766,151.672
0.552,0.505,0.802,0.793,-22.705,163.208
0.350,0.236,0.823,9.521,-24.170,172.729
0.113,-0.074,0.928,15.198,-20.752,177.246
-0.131,-0.399,1.018,16.541,-9.583,177.917
-0.307,-0.641,1.045,11.292,3.723,171.875
-0.489,-0.902,1.078,5.066,13.550,155.518
-0.613,-1.095,1.072,-0.793,17.883,140.625
-0.514,-1.200,1.090,1.099,9.033,149.475
-0.514,-1.208,1.196,11.292,5.920,172.180
-0.506,-1.302,1.289,4.211,-8.667,168.213
-0.625,-1.405,1.358,-4.700,-32.104,124.207
-0.751,-1.453,1.405,-9.399,-44.067,57.373
-0.746,-1.461,1.393,-15.930,-48.157,12.756
-0.706,-1.406,1.379,-17.822,-43.640,-11.414
-0.712,-1.420,1.334,-16.296,-32.166,-38.147
-0.683,-1.404,1.273,-15.076,-21.973,-57.983
-0.675,-1.359,1.187,-16.907,-14.343,-59.814
-0.579,-1.292,1.100,-18.127,-5.310,-46.570
-0.551,-1.198,1.013,-18.311,2.747,-31.006
-0.501,-1.122,0.948,-18.066,10.498,-33.875
-0.447,-1.035,0.886,-15.808,18.677,-37.842
-0.373,-0.965,0.809,-9.583,29.724,-41.077
-0.348,-0.924,0.812,-11.719,23.682,-49.927
-0.322,-0.857,0.823,-13.916,16.785,-58.350
-0.303,-0.803,0.845,-15.869,9.399,-66.650
-0.291,-0.763,0.861,-16.174,4.089,-75.134
-0.259,-0.719,0.896,-18.860,-2.075,-86.365
-0.223,-0.675,0.931,-19.043,-5.798,-97.534
-0.203,-0.628,0.991,-16.724,-5.554,-107.361
-0.170,-0.569,1.015,-9.277,3.845,-114.746
-0.144,-0.495,1.000,-1.099,16.296,-119.690
-0.102,-0.434,0.982,1.892,21.362,-123.230
-0.094,-0.343,1.006,0.671,22.705,-125.427
-0.044,-0.239,1.044,-0.122,32.227,-125.977
0.046,-0.098,1.049,0.000,44.128,-122.803
0.156,0.056,1.058,3.479,53.711,-117.371
0.245,0.173,1.071,8.850,62.927,-113.281
0.334,0.320,1.068,13.306,69.946,-107.422
0.408,0.442,1.044,18.677,75.867,-101.135
0.486,0.607,1.075,24.414,74.097,-95.215
0.567,0.760,1.090,26.184,69.397,-92.590
0.658,0.928,1.117,25.696,58.899,-90.149
0.708,1.113,1.060,22.278,47.180,-89.294
0.722,1.172,1.033,13.428,33.630,-93.201
0.699,1.198,1.031,9.583,15.808,-87.646
0.664,1.187,1.083,8.911,2.991,-74.829
0.648,1.142,1.103,8.667,0.427,-61.035
0.599,1.078,1.111,4.150,-5.859,-47.119
0.506,1.022,1.150,-3.723,-18.738,-33.447
0.434,0.982,1.150,-8.850,-22.827,-21.729
0.413,0.910,1.118,-11.414,-21.057,-12.085
0.333,0.899,1.083,-8.972,-14.343,7.507
0.327,0.868,1.039,-8.484,-9.460,15.381
0.352,0.841,1.016,-6.104,-7.507,23.926
0.354,0.793,1.006,-5.737,-8.667,31.921
0.385,0.742,0.984,-5.066,-8.423,40.222
0.402,0.699,0.967,-4.944,-11.597,49.500
0.400,0.635,0.950,-6.104,-17.334,58.472
0.388,0.559,0.937,-8.179,-24.475,66.040
0.346,0.461,0.924,-8.118,-29.175,72.876
0.282,0.348,0.925,-6.165,-29.175,80.017
0.214,0.198,0.971,-2.258,-25.513,85.876
0.131,0.064,1.039,-0.610,-22.705,86.853
-0.063,-0.143,1.135,-2.686,-21.851,81.543
-0.216,-0.316,1.223,-6.531,-18.738,78.552
-0.332,-0.453,1.252,-9.277,-12.146,76.843
-0.344,-0.518,1.209,-13.123,-5.493,74.524
-0.385,-0.573,1.226,-15.625,-2.197,72.876
-0.340,-0.556,1.185,-9.399,7.507,82.886
-0.364,-0.556,1.218,-8.118,7.080,91.370
-0.362,-0.627,1.172,-5.371,17.761,92.712
-0.388,-0.573,1.150,-5.737,24.292,97.900
-0.355,-0.591,1.098,-4.883,22.583,91.980
-0.343,-0.537,1.052,-5.554,18.494,72.205
-0.298,-0.506,1.046,-5.615,7.935,38.635
-0.277,-0.495,1.010,-7.019,-3.174,5.859
-0.269,-0.452,1.036,-7.202,-12.634,-13.489
-0.219,-0.374,1.060,-4.395,-13.489,-22.034
-0.144,-0.280,1.048,0.244,-5.371,-25.757
-0.086,-0.218,1.033,3.418,-0.854,-31.921
-0.068,-0.150,1.072,4.761,-2.136,-36.804
-0.006,-0.095,1.089,6.714,-0.732,-40.649
0.011,-0.059,1.104,10.620,3.906,-44.434
0.012,-0.041,1.139,12.756,7.080,-46.082
-0.043,-0.093,1.088,13.000,11.719,-44.739
-0.005,-0.073,1.093,6.287,0.183,-25.391
-0.082,-0.047,1.132,-1.343,-12.024,-4.150
-0.085,-0.020,1.113,-7.629,-12.390,-2.808
-0.082,0.001,1.056,-11.597,-7.507,-2.991
-0.088,0.028,1.014,-13.611,-3.601,-2.319
-0.084,0.066,0.990,-14.038,-1.953,-0.916
-0.108,0.087,0.986,-12.268,-1.404,0.610
-0.128,0.083,0.986,-10.437,-1.465,0.183
-0.128,0.092,0.988,-8.301,0.305,0.244
-0.136,0.087,0.986,-5.676,3.540,-0.610
-0.139,0.091,1.001,-2.808,5.493,-1.648
-0.129,0.095,1.031,-0.854,5.615,-3.113
-0.117,0.082,1.055,1.648,8.606,-4.700
-0.121,0.063,1.078,3.479,12.512,-5.066
-0.109,0.056,1.090,3.784,15.137,-4.700
-0.096,0.056,1.104,2.930,14.893,-4.456
-0.094,0.049,1.110,0.671,11.841,-5.615
-0.079,0.051,1.116,-0.732,10.132,-6.592
-0.057,0.050,1.122,-0.854,9.827,-5.859
-0.040,0.057,1.128,-0.732,8.240,-4.761
-0.037,0.047,1.125,-1.465,4.639,-4.578
-0.037,0.043,1.128,-1.160,1.587,-4.333
-0.034,0.039,1.133,-0.977,-0.854,-4.089
-0.035,0.036,1.130,-1.282,-2.441,-3.723
-0.039,0.031,1.118,-1.221,-2.441,-3.235

0.634,1.645,1.020,16.174,-33.142,-57.922
0.781,1.602,1.213,41.504,-57.800,-54.504
0.963,1.523,1.368,52.124,-74.524,-38.879
0.914,1.423,1.486,40.405,-84.412,-18.311
0.883,1.311,1.408,14.282,-82.336,0.793
0.865,1.186,1.268,-10.986,-77.698,21.729
0.849,1.040,1.085,-24.109,-70.618,47.974
0.789,0.872,0.908,-28.076,-64.575,75.073
0.704,0.678,0.736,-22.705,-59.204,96.130
0.510,0.413,0.648,-12.512,-61.279,107.178
0.296,0.163,0.668,-4.456,-71.838,115.723
0.085,-0.101,0.793,-5.737,-88.196,113.403
-0.199,-0.383,1.014,-14.282,-103.333,93.689
-0.463,-0.664,1.228,-19.592,-92.468,78.125
-0.562,-0.896,1.245,-12.451,-52.551,101.074
-0.677,-0.946,1.220,-3.967,-16.113,140.686
-0.701,-1.045,1.170,3.174,12.878,149.780
-0.640,-1.123,1.149,6.348,29.846,140.198
-0.547,-1.155,1.152,6.104,33.142,122.559
-0.513,-1.211,1.210,3.235,24.841,99.487
-0.546,-1.265,1.294,-1.831,16.968,71.716
-0.589,-1.355,1.333,-8.972,13.916,43.640
-0.639,-1.407,1.322,-15.137,11.719,24.902
-0.672,-1.440,1.274,-19.592,13.245,10.254
-0.650,-1.450,1.189,-21.118,19.165,-2.808
-0.661,-1.448,1.118,-22.278,23.193,-15.747
-0.642,-1.409,0.996,-18.127,31.494,-22.278
-0.642,-1.341,0.896,-14.587,33.081,-22.400
-0.657,-1.294,0.787,-8.118,31.372,-24.597
-0.714,-1.275,0.720,-2.991,26.184,-31.128
-0.756,-1.275,0.710,-1.587,19.165,-43.701
-0.763,-1.274,0.793,-1.648,10.254,-62.317
-0.737,-1.249,0.883,-1.465,4.883,-78.735
-0.646,-1.221,0.957,-1.465,6.653,-94.971
-0.543,-1.174,1.013,-2.197,10.315,-108.948
-0.428,-1.137,1.021,-2.686,13.550,-119.507
-0.317,-1.067,1.004,-1.770,17.578,-126.953
-0.188,-0.932,1.000,-1.709,22.339,-131.714
-0.110,-0.792,0.981,-0.610,26.733,-132.751
-0.044,-0.602,0.958,-1.099,30.151,-127.808
0.024,-0.347,0.955,-3.723,33.508,-117.676
0.084,-0.108,0.951,-5.493,42.480,-110.352
0.164,0.123,0.987,-8.301,49.744,-106.567
0.290,0.317,1.046,-10.742,54.443,-110.229
0.433,0.457,1.098,-7.080,59.509,-119.507
0.606,0.611,1.159,-3.479,63.477,-125.305
0.746,0.712,1.221,-2.502,60.608,-129.639
0.798,0.832,1.253,-2.319,57.861,-127.563
0.807,0.924,1.202,-3.723,57.800,-124.512
0.839,1.055,1.127,-8.362,48.645,-121.155
0.836,1.176,1.057,-16.296,31.616,-117.126
0.783,1.259,0.982,-22.583,12.939,-110.962
0.728,1.343,0.914,-25.818,-3.723,-99.609
0.684,1.364,0.843,-25.635,-12.878,-91.064
0.679,1.387,0.771,-23.621,-21.118,-82.520
0.675,1.387,0.750,-22.461,-42.297,-70.923
0.634,1.383,0.809,-18.921,-60.486,-61.829
0.645,1.340,0.823,-12.512,-64.087,-54.443
0.643,1.294,0.849,-7.812,-65.735,-43.579
0.648,1.231,0.887,-5.432,-68.909,-30.945
0.643,1.149,0.943,-3.479,-68.298,-16.785
0.627,1.025,0.971,0.061,-59.998,-4.517
0.635,0.918,0.995,-0.244,-55.054,15.015
0.526,0.817,1.018,1.099,-48.950,23.437
0.492,0.670,1.075,-1.221,-40.527,31.311
0.482,0.560,1.038,-2.197,-26.917,46.997
0.429,0.459,1.031,-2.380,-18.494,64.758
0.406,0.379,1.022,-2.075,-13.855,83.923
0.372,0.311,1.013,-1.221,-11.414,97.534
0.280,0.198,1.025,-1.587,-14.282,101.807
0.176,0.078,1.043,-3.174,-18.738,99.426
0.071,-0.056,1.030,-4.272,-17.456,90.027
0.008,-0.054,1.030,-4.761,-18.982,76.233
-0.189,-0.210,1.077,-7.568,-26.917,39.001
-0.384,-0.396,1.118,-14.160,-32.898,1.953
-0.460,-0.527,1.182,-19.104,-27.039,-4.822
-0.609,-0.602,1.222,-22.583,-17.700,0.916
-0.656,-0.601,1.211,-18.982,5.188,17.883
-0.660,-0.602,1.153,-16.357,25.452,30.518
-0.723,-0.614,1.103,-16.968,35.156,35.950
-0.680,-0.584,1.059,-15.442,37.903,36.316
-0.661,-0.579,1.047,-13.306,37.842,33.875
-0.645,-0.562,1.028,-8.362,42.114,34.485
-0.631,-0.537,1.005,-5.249,43.701,33.997
-0.560,-0.487,1.015,-2.502,38.452,31.372
-0.468,-0.428,1.053,2.563,33.813,30.396
-0.366,-0.347,1.083,13.000,36.316,36.072
-0.272,-0.285,1.087,25.574,39.185,45.654
-0.296,-0.244,1.189,39.368,44.128,55.054
-0.189,-0.240,1.111,56.580,63.599,61.157
-0.092,-0.200,1.082,49.316,38.818,66.833
-0.078,-0.154,1.090,31.311,-5.554,73.486
-0.280,-0.296,1.091,10.437,-47.485,90.637
-0.289,-0.032,1.194,-13.550,-78.674,137.146
-0.222,0.024,1.239,-17.517,-67.810,122.681
-0.274,0.054,1.225,-13.550,-35.583,64.575
-0.258,0.035,1.155,-12.695,-11.108,12.024
-0.245,0.028,1.079,-13.428,5.859,-17.883
-0.174,0.085,1.009,-12.573,16.785,-25.635
-0.152,0.126,0.998,-12.573,11.780,-31.982
-0.102,0.169,0.942,-10.315,2.441,-36.926
-0.111,0.202,1.006,-8.667,-12.207,-39.001
-0.077,0.214,1.015,0.793,-6.470,-33.936
-0.098,0.212,1.049,8.240,7.812,-30.151
-0.085,0.215,1.088,13.733,25.635,-25.146
-0.090,0.179,1.030,19.714,48.889,-20.508
-0.026,0.162,0.964,18.188,51.514,-15.686
-0.051,0.175,1.021,6.592,20.447,-7.080
-0.077,0.169,1.063,3.174,6.897,-2.502
-0.074,0.160,1.062,1.587,3.052,0.000
-0.070,0.131,1.054,0.854,0.183,1.343
-0.071,0.138,1.082,1.282,-3.113,7.324
-0.078,0.122,1.123,0.488,-8.545,10.071
-0.053,0.113,1.137,-0.610,-11.047,11.475
-0.065,0.098,1.137,-0.977,-10.376,12.939
-0.101,0.089,1.149,-1.953,-10.315,13.306
-0.087,0.066,1.105,-2.502,-9.338,12.329
-0.085,0.072,1.122,-5.676,-13.855,10.986
-0.098,0.077,1.106,-4.639,-6.897,11.536

-0.745,-0.898,1.213,-37.781,69.519,25.391
-0.842,-0.963,1.217,-41.260,59.387,14.038
-0.916,-1.019,1.218,-44.434,44.800,-5.676
-0.936,-1.044,1.198,-44.922,35.767,-26.855
-0.860,-1.045,1.197,-40.894,32.166,-41.992
-0.750,-0.984,1.149,-34.302,30.884,-49.866
-0.625,-0.907,1.124,-31.738,28.320,-60.303
-0.463,-0.855,1.064,-32.227,27.832,-77.087
-0.364,-0.777,0.997,-33.447,23.254,-92.590
-0.294,-0.690,0.982,-37.598,13.000,-93.079
-0.147,-0.469,0.979,-38.452,6.531,-81.787
0.112,-0.151,0.970,-33.508,8.911,-84.229
0.357,0.111,0.983,-22.766,15.442,-100.830
0.573,0.366,0.998,-10.437,19.287,-115.906
0.731,0.581,1.033,2.136,17.700,-126.465
0.818,0.745,1.110,12.390,9.521,-133.240
0.937,0.893,1.163,17.639,-1.465,-139.771
1.031,0.985,1.213,18.372,-15.076,-142.090
1.058,1.091,1.226,19.104,-27.832,-133.179
1.019,1.208,1.236,15.442,-37.292,-119.324
1.037,1.316,1.080,8.850,-34.729,-107.056
1.024,1.383,0.917,0.061,-37.781,-91.919
0.949,1.464,0.846,-7.263,-49.561,-75.623
0.896,1.459,0.760,-13.855,-61.829,-68.115
0.862,1.456,0.675,-17.639,-71.533,-53.955
0.798,1.418,0.632,-21.484,-77.942,-37.109
0.724,1.354,0.589,-24.231,-79.773,-20.386
0.657,1.297,0.549,-26.245,-79.041,-5.554
0.664,1.178,0.510,-27.588,-81.787,4.578
0.535,1.129,0.564,-28.320,-89.844,19.897
0.503,0.993,0.650,-30.518,-90.637,17.151
0.512,0.881,0.663,-29.663,-77.454,24.353
0.505,0.774,0.734,-25.696,-61.584,41.870
0.442,0.664,0.780,-20.386,-41.504,54.016
0.379,0.575,0.872,-12.451,-20.325,63.904
0.431,0.562,0.923,-5.249,2.747,76.172
0.413,0.492,0.906,-1.221,27.039,84.656
0.427,0.418,0.857,-2.136,37.231,81.238
0.494,0.369,0.867,-7.874,20.264,81.360
0.488,0.308,0.911,-8.545,8.362,86.060
0.459,0.225,0.956,-4.944,6.165,90.149
0.344,0.117,1.008,0.244,2.930,88.806
0.314,-0.004,1.052,6.775,2.991,83.923
0.134,-0.152,1.145,10.681,-2.747,73.303
-0.021,-0.288,1.242,10.071,-5.066,54.810
-0.207,-0.429,1.277,10.132,0.916,39.368
-0.284,-0.504,1.286,5.188,4.272,31.982
-0.480,-0.562,1.274,-2.808,0.793,25.330
-0.577,-0.611,1.212,-10.376,0.610,25.391
-0.662,-0.615,1.121,-12.024,8.423,34.058
-0.779,-0.675,1.082,-2.686,16.541,43.640
-0.809,-0.623,1.045,0.122,13.306,59.814
-0.959,-0.619,1.026,8.728,10.681,54.749
-1.217,-0.802,1.083,15.259,7.690,36.011
-1.255,-0.776,1.100,14.954,6.714,33.936
-1.295,-0.799,1.127,19.348,9.583,23.010
-1.307,-0.821,1.150,19.470,8.545,11.658
-1.189,-0.720,1.169,18.982,5.554,8.545
-1.076,-0.690,1.192,20.874,4.150,1.343
-0.980,-0.656,1.221,18.921,-3.784,-9.644
-0.881,-0.630,1.234,15.198,-11.292,-20.813
-0.808,-0.604,1.235,12.024,-14.343,-29.419
-0.750,-0.580,1.215,8.057,-15.442,-37.048
-0.684,-0.546,1.180,4.395,-13.672,-45.166
-0.590,-0.509,1.137,-0.183,-11.963,-54.626
-0.485,-0.469,1.094,-4.211,-8.362,-63.660
-0.385,-0.448,1.058,-6.348,-3.784,-70.923
-0.305,-0.400,1.029,-5.859,0.916,-75.623
-0.239,-0.346,1.027,-4.578,4.517,-80.139
-0.172,-0.289,1.028,-1.709,7.507,-84.534
-0.133,-0.210,1.039,-0.488,9.399,-86.304
-0.091,-0.125,1.041,0.061,12.085,-85.999
-0.035,-0.043,1.042,0.732,15.625,-84.839
0.035,0.017,1.008,2.075,18.005,-81.482
0.055,0.058,1.003,-0.610,10.559,-78.247
0.043,0.084,1.002,0.549,7.874,-73.364
0.003,0.121,1.016,1.892,8.789,-67.749
-0.006,0.177,1.011,2.258,12.024,-64.392
0.010,0.261,1.012,0.305,14.893,-64.575
0.073,0.346,0.999,-2.625,17.212,-66.956
0.183,0.440,0.960,-5.005,18.799,-68.115
0.305,0.527,0.957,-5.554,16.846,-67.139
0.405,0.600,0.967,-4.089,13.489,-62.744
0.470,0.640,0.975,-4.150,8.362,-56.580
0.503,0.670,0.985,-3.784,3.906,-48.218
0.502,0.682,1.001,-2.930,-0.916,-38.452
0.467,0.680,1.005,-3.418,-4.517,-28.381
0.404,0.659,1.002,-4.761,-6.775,-18.311
0.344,0.624,0.980,-6.531,-6.714,-9.399
0.280,0.581,0.961,-8.423,-6.226,-2.197
0.222,0.537,0.938,-9.338,-5.005,4.456
0.162,0.488,0.924,-8.179,-3.479,10.315
0.108,0.439,0.903,-6.775,-3.296,14.832
0.058,0.395,0.885,-5.798,-4.700,17.883
0.009,0.350,0.882,-4.578,-7.935,19.592
-0.038,0.302,0.877,-3.723,-10.681,20.508
-0.084,0.256,0.884,-2.930,-13.062,20.752
-0.120,0.217,0.910,-2.014,-14.526,20.447
-0.145,0.178,0.938,-1.221,-14.282,19.470
-0.159,0.150,0.960,-0.061,-11.597,18.005
-0.172,0.128,0.980,0.732,-8.728,16.724
-0.176,0.103,0.999,1.099,-6.470,14.587
-0.168,0.076,1.022,1.038,-4.822,11.780
-0.162,0.060,1.055,1.709,-3.052,9.583
-0.159,0.047,1.072,1.526,-1.160,6.836
-0.149,0.035,1.085,0.427,0.610,4.272
-0.137,0.041,1.084,-0.122,4.028,3.479
-0.121,0.049,1.084,-1.099,5.981,2.319
-0.109,0.061,1.053,-2.136,7.996,1.099
-0.124,0.084,1.035,-2.014,7.568,-0.305
-0.110,0.087,1.035,-3.357,3.418,-5.127
-0.104,0.088,1.042,-2.075,2.686,-6.897
-0.106,0.098,1.040,-1.099,4.456,-6.165
-0.112,0.106,1.033,-0.916,6.653,-5.005
-0.117,0.120,1.015,-0.610,7.324,-5.188
-0.134,0.118,1.000,1.404,6.287,-8.118
-0.136,0.133,1.001,2.686,4.333,-11.414
-0.148,0.130,1.001,2.686,2.441,-14.832
-0.178,0.118,0.999,3.601,1.160,-16.357

-1.268,-0.371,1.152,2.441,3.357,-42.419
-1.365,-0.411,1.161,0.305,2.808,-62.195
-1.347,-0.442,1.200,-2.686,8.545,-80.078
-1.185,-0.432,1.178,-2.441,19.592,-92.468
-1.007,-0.428,1.143,-4.517,31.921,-104.370
-0.817,-0.415,1.101,-6.714,45.227,-107.910
-0.638,-0.385,1.052,-7.996,57.556,-103.943
-0.496,-0.336,0.991,-9.155,69.580,-93.445
-0.331,-0.267,0.934,-6.409,79.834,-79.041
-0.167,-0.195,0.862,-2.930,87.524,-61.218
0.035,-0.112,0.821,-0.854,89.783,-42.847
0.267,-0.001,0.828,-0.854,85.938,-27.161
0.567,0.169,0.845,6.165,80.750,-12.756
0.822,0.308,0.931,18.005,71.777,-7.202
1.198,0.558,1.032,18.250,55.725,-1.587
1.487,0.783,1.085,16.663,35.583,-11.597
1.658,0.964,1.137,12.512,14.709,-23.560
1.789,1.176,1.152,0.549,-0.305,-25.330
1.718,1.216,1.104,-9.888,-10.681,-29.724
1.565,1.127,0.999,-11.780,-15.198,-26.611
1.470,1.128,0.862,-15.991,-18.188,-11.780
1.376,1.108,0.752,-22.156,-24.597,-1.892
1.314,1.063,0.649,-25.818,-28.992,9.949
1.277,1.059,0.589,-26.855,-33.203,24.353
1.218,1.060,0.532,-25.818,-37.842,29.541
1.224,0.966,0.548,-26.550,-52.917,4.211
1.192,0.842,0.610,-29.907,-62.744,-23.193
1.057,0.726,0.618,-26.550,-54.626,-34.119
0.955,0.572,0.638,-19.836,-44.678,-46.936
0.870,0.407,0.730,-25.757,-37.476,-49.438
0.802,0.260,0.779,-27.405,-20.935,-18.677
0.697,0.165,0.789,-22.583,-6.348,15.808
0.587,0.135,0.825,-19.470,6.409,44.434
0.460,0.022,0.911,-10.132,18.677,62.805
0.290,-0.079,0.956,-4.395,24.780,78.796
0.080,-0.164,1.040,-2.136,23.376,99.182
-0.030,-0.175,1.178,4.456,21.362,109.009
-0.138,-0.283,1.170,13.550,26.123,116.150
-0.240,-0.308,1.151,13.550,24.597,121.521
-0.291,-0.309,1.072,15.747,16.357,135.376
-0.472,-0.289,1.079,13.977,-3.662,125.488
-0.698,-0.336,1.228,7.507,-26.123,99.060
-0.760,-0.438,1.148,1.038,-16.785,73.853
-0.858,-0.476,1.188,-0.427,-27.222,59.570
-1.053,-0.450,1.260,3.418,-41.626,52.063
-1.284,-0.473,1.235,6.348,-44.067,34.973
-1.550,-0.526,1.255,5.615,-36.255,18.005
-1.709,-0.369,1.166,10.559,-27.161,10.498
-1.748,-0.403,1.127,10.559,-20.447,3.357
-1.696,-0.360,1.129,5.981,-19.226,0.671
-1.591,-0.352,1.110,9.460,-13.855,-4.028
-1.467,-0.343,1.065,14.038,-11.963,-7.507
-1.391,-0.316,1.059,11.230,-23.865,-20.020
-1.294,-0.304,1.101,9.399,-39.001,-38.757
-1.164,-0.302,1.097,7.446,-46.875,-57.129
-1.022,-0.310,1.084,5.493,-49.622,-73.242
-0.896,-0.320,1.077,5.798,-47.546,-84.961
-0.795,-0.292,1.087,6.775,-41.199,-94.055
-0.623,-0.292,1.100,7.385,-30.640,-101.501
-0.482,-0.266,1.092,7.507,-18.311,-104.370
-0.374,-0.222,1.083,8.545,-7.446,-105.164
-0.253,-0.152,1.066,9.216,0.122,-104.492
-0.108,-0.066,1.029,9.399,6.958,-103.638
0.054,0.022,1.002,11.414,12.024,-102.173
0.245,0.116,1.012,14.648,12.939,-99.915
0.475,0.198,1.003,16.907,8.850,-96.985
0.667,0.279,1.000,14.282,0.610,-92.285
0.801,0.342,1.037,13.367,-9.766,-84.534
0.878,0.390,1.084,13.123,-16.479,-74.829
0.921,0.430,1.095,9.888,-18.188,-61.401
0.905,0.451,1.112,6.897,-17.883,-46.021
0.844,0.461,1.115,3.906,-16.357,-29.968
0.748,0.466,1.127,1.221,-13.428,-14.587
0.616,0.449,1.106,0.732,-8.545,-1.099
0.462,0.435,1.082,-1.709,-3.479,9.827
0.322,0.409,1.050,-4.150,-0.671,17.212
0.207,0.386,1.029,-6.348,0.977,21.057
0.122,0.350,1.003,-7.507,1.831,22.644
0.053,0.323,0.994,-7.568,2.563,23.804
-0.011,0.290,0.987,-8.240,3.601,24.414
-0.068,0.245,0.971,-8.789,4.761,24.780
-0.109,0.225,0.957,-7.080,6.042,25.085
-0.145,0.188,0.943,-5.554,6.714,24.048
-0.181,0.167,0.928,-4.944,6.409,22.949
-0.213,0.156,0.922,-5.127,5.371,21.667
-0.225,0.129,0.916,-4.456,5.493,19.592
-0.232,0.129,0.915,-3.540,5.920,17.273
-0.236,0.121,0.916,-3.235,5.554,14.343
-0.233,0.110,0.928,-2.075,5.371,11.597
-0.225,0.125,0.950,-0.183,6.775,9.155
-0.228,0.141,0.998,-0.427,7.629,6.165
-0.189,0.112,0.998,-0.916,8.911,1.953
-0.141,0.099,1.003,-0.916,8.423,-0.854
-0.104,0.096,1.037,-0.793,5.249,-1.404
-0.079,0.095,1.069,-0.549,2.991,-0.916
-0.092,0.085,1.090,0.061,2.808,0.305
-0.119,0.136,1.097,-1.343,2.258,-2.930
-0.092,0.109,1.094,-3.052,1.892,-7.324
-0.074,0.118,1.090,-3.296,1.770,-6.348
-0.083,0.124,1.074,-3.845,2.014,-4.272
-0.082,0.126,1.052,-4.150,3.601,-2.319
-0.087,0.135,1.016,-3.662,5.127,0.183
-0.107,0.150,1.001,-2.930,4.272,3.906
-0.118,0.165,0.984,-3.113,2.258,5.432
-0.119,0.166,0.984,-2.808,0.061,5.249
-0.126,0.171,0.998,-2.075,-1.770,4.883
-0.128,0.173,1.006,-1.526,-2.625,4.272
-0.122,0.172,1.007,-1.343,-2.502,3.845
-0.114,0.169,1.009,-1.038,-2.197,3.540
-0.106,0.165,1.007,-0.427,-1.587,3.723
-0.106,0.165,1.008,-0.244,-0.916,4.761
-0.109,0.161,1.006,-0.366,-0.549,5.981
-0.130,0.166,1.014,-0.610,0.000,6.470
-0.120,0.166,1.016,-1.831,-0.366,3.662
-0.115,0.164,1.024,-1.160,0.488,3.784
-0.121,0.171,1.029,-0.916,1.831,5.859
-0.119,0.183,1.025,-0.977,2.502,6.775
-0.098,0.182,1.017,-1.221,2.197,5.493
-0.088,0.184,1.016,-1.160,1.648,4.578

-1.490,-0.172,1.192,-24.353,15.137,-36.316
-1.538,-0.196,1.214,-25.024,19.653,-55.420
-1.497,-0.221,1.207,-21.912,25.696,-76.477
-1.486,-0.295,1.216,-24.353,33.386,-95.337
-1.294,-0.323,1.193,-22.400,52.307,-91.797
-1.041,-0.347,1.179,-14.771,75.256,-79.407
-0.759,-0.389,1.102,-0.732,94.299,-73.059
-0.537,-0.416,1.005,13.489,97.839,-82.336
-0.198,-0.379,0.929,19.287,95.764,-83.801
0.065,-0.242,0.865,17.151,85.938,-96.375
0.189,-0.186,0.839,8.606,66.711,-124.939
0.474,-0.067,0.763,8.362,50.049,-128.113
0.766,0.076,0.720,2.197,32.959,-131.226
1.052,0.228,0.724,-6.470,12.573,-143.188
1.352,0.383,0.688,-5.859,-6.592,-144.104
1.630,0.488,0.687,-3.906,-29.175,-140.320
1.835,0.533,0.746,-3.113,-53.711,-132.446
1.920,0.564,0.832,-4.456,-74.097,-119.385
1.936,0.594,0.920,-7.446,-83.496,-98.450
1.899,0.616,0.998,-11.169,-81.482,-73.792
1.875,0.649,1.049,-15.137,-70.740,-45.898
1.770,0.638,1.060,-19.775,-52.856,-21.973
1.651,0.607,1.034,-28.503,-36.987,-3.418
1.527,0.593,0.980,-37.048,-25.696,11.719
1.375,0.555,0.931,-48.706,-26.367,19.653
1.279,0.557,0.911,-56.335,-29.724,25.269
1.173,0.493,0.869,-55.847,-22.644,20.752
0.935,0.444,0.911,-54.443,-13.977,4.150
0.818,0.401,0.884,-42.053,2.869,-2.380
0.912,0.298,0.910,-36.072,14.038,3.906
0.787,0.243,0.961,-28.076,18.860,32.593
0.672,0.143,1.006,-13.977,18.250,54.077
0.687,0.119,1.042,-6.836,31.128,78.369
0.739,0.065,1.004,7.324,49.500,101.929
0.704,-0.035,1.038,14.648,58.716,112.488
0.598,-0.125,1.104,19.470,61.584,124.023
0.596,-0.190,1.039,16.602,80.811,146.790
0.470,-0.241,0.956,22.583,85.693,162.231
0.289,-0.309,0.985,20.569,68.237,175.110
0.057,-0.387,1.102,17.395,44.373,184.753
-0.219,-0.435,1.233,16.541,25.635,190.491
-0.529,-0.460,1.293,13.916,14.526,191.711
-0.741,-0.438,1.240,8.789,7.324,187.134
-0.911,-0.390,1.186,2.930,-3.662,174.377
-0.993,-0.363,1.158,-2.075,-13.855,156.006
-1.046,-0.361,1.130,-2.319,-20.752,139.160
-1.094,-0.344,1.104,-0.793,-27.466,128.174
-1.110,-0.293,1.091,3.357,-35.339,115.906
-1.506,-0.513,1.111,12.451,-51.270,92.773
-1.512,-0.285,1.223,9.460,-42.114,102.783
-1.393,-0.257,1.018,29.602,-1.404,106.262
-1.518,-0.329,0.932,27.039,-7.141,58.105
-1.389,-0.298,0.936,13.611,-24.536,37.720
-1.303,-0.271,0.962,12.756,-34.119,23.010
-1.251,-0.263,0.926,13.611,-35.828,5.981
-1.207,-0.239,0.867,10.132,-41.870,-11.475
-1.115,-0.239,0.865,-3.113,-51.514,-29.846
-0.996,-0.260,0.937,-11.719,-61.584,-45.654
-0.870,-0.241,1.033,-14.587,-65.002,-56.641
-0.783,-0.224,1.086,-11.963,-59.204,-65.613
-0.669,-0.198,1.082,-9.216,-45.288,-73.059
-0.553,-0.158,1.049,-7.080,-29.846,-77.759
-0.463,-0.129,1.009,-2.502,-15.930,-80.994
-0.341,-0.081,0.966,4.517,-2.136,-81.360
-0.227,-0.029,0.950,9.827,8.423,-81.177
-0.125,0.026,0.945,13.611,15.320,-82.214
-0.032,0.075,0.943,17.273,20.752,-83.374
0.067,0.127,0.939,20.996,25.879,-82.214
0.180,0.184,0.947,23.437,30.334,-79.651
0.307,0.252,0.970,23.743,33.081,-76.843
0.438,0.306,0.971,22.888,32.654,-74.097
0.553,0.357,0.989,20.630,29.724,-69.580
0.649,0.389,1.005,17.639,24.780,-63.293
0.683,0.412,1.028,15.625,16.724,-57.983
0.677,0.423,1.067,12.146,9.888,-49.011
0.622,0.419,1.086,8.545,6.226,-39.612
0.559,0.406,1.085,5.432,5.188,-30.823
0.496,0.389,1.073,2.686,5.371,-22.461
0.433,0.373,1.052,1.160,6.042,-14.648
0.359,0.360,1.031,0.671,6.165,-7.690
0.282,0.343,1.018,-0.671,5.493,-2.808
0.213,0.315,0.996,-1.160,4.395,0.671
0.173,0.289,0.972,-1.160,3.174,3.845
0.112,0.270,0.968,-1.038,0.916,6.287
0.062,0.250,0.952,1.648,1.282,7.935
0.037,0.213,0.911,6.409,2.380,7.324
0.006,0.205,0.954,7.690,-0.366,7.935
-0.026,0.136,0.875,25.513,-0.916,8.972
0.001,0.150,0.894,19.287,1.404,11.292
-0.016,0.141,0.956,2.686,-1.282,12.573
-0.017,0.124,1.003,3.662,-1.282,11.963
-0.017,0.094,1.055,3.723,-0.427,10.498
-0.019,0.072,1.091,4.333,1.892,9.888
-0.030,0.058,1.106,5.371,5.310,10.315
-0.053,0.052,1.122,5.005,6.714,9.705
-0.058,0.043,1.113,3.784,8.850,8.362
-0.065,0.048,1.105,3.174,10.315,7.690
-0.071,0.064,1.090,3.418,11.047,6.897
-0.061,0.062,1.044,5.249,11.780,5.737
-0.058,0.067,1.023,1.526,11.292,4.944
-0.046,0.101,1.014,-2.319,9.094,6.042
-0.053,0.112,1.001,-3.845,5.798,4.456
-0.057,0.117,0.985,-2.441,3.235,2.747
-0.062,0.113,0.955,0.916,1.709,1.587
-0.070,0.114,0.961,1.099,0.488,0.793
-0.072,0.109,0.970,1.770,-0.122,0.671
-0.074,0.112,0.990,1.404,0.183,1.099
-0.076,0.110,1.004,0.366,0.854,1.282
-0.075,0.112,1.004,0.000,2.197,1.709
-0.071,0.116,1.001,-0.488,2.991,2.197
-0.067,0.112,0.992,-0.183,3.479,2.502
-0.068,0.115,0.995,0.366,2.808,2.808
-0.071,0.119,1.002,0.488,1.526,2.930
-0.071,0.112,1.010,-0.427,0.000,2.441
-0.073,0.109,1.023,-0.671,-1.099,2.014
-0.084,0.107,1.036,-0.305,-1.953,1.831
-0.094,0.102,1.044,-0.061,-2.258,1.465
-0.113,0.100,1.049,-0.061,-2.136,0.732
-0.125,0.097,1.037,0.061,-1.892,-0.488

1.420,0.804,1.037,-24.780,23.315,-57.922
1.750,0.755,1.102,-30.029,10.071,-52.979
1.942,0.612,1.113,-35.583,-2.502,-35.950
1.922,0.457,1.034,-40.466,-10.559,-6.531
1.762,0.375,0.933,-45.593,-12.146,31.433
1.560,0.240,0.730,-31.738,-9.033,68.665
1.340,0.117,0.638,-23.132,-5.554,99.670
1.040,-0.055,0.619,-18.860,-5.676,120.789
0.690,-0.207,0.715,-14.160,-6.531,137.390
0.327,-0.349,0.834,-10.132,-6.836,151.001
-0.070,-0.433,0.976,-9.521,-10.742,157.593
-0.502,-0.490,1.102,-14.160,-14.343,156.433
-0.880,-0.507,1.175,-8.972,-14.221,153.625
-1.183,-0.525,1.208,-1.221,-15.198,147.888
-1.420,-0.498,1.246,-6.165,-18.982,134.949
-1.600,-0.503,1.311,-10.376,-14.221,115.845
-1.685,-0.472,1.300,1.831,-4.700,105.591
-1.605,-0.427,1.233,5.798,-0.366,82.947
-1.914,-0.580,1.210,3.662,-8.606,43.030
-1.887,-0.394,1.251,-4.517,1.160,30.334
-1.674,-0.432,1.023,5.737,34.241,23.071
-1.660,-0.475,0.889,1.221,25.208,-12.390
-1.524,-0.444,0.860,-9.033,4.028,-34.302
-1.443,-0.433,0.852,-11.475,-7.080,-50.171
-1.357,-0.436,0.797,-11.414,-11.658,-65.552
-1.259,-0.437,0.758,-11.902,-18.494,-79.468
-1.176,-0.432,0.787,-15.686,-25.940,-92.896
-1.032,-0.426,0.837,-16.418,-28.931,-101.746
-0.940,-0.423,0.905,-13.000,-29.724,-108.765
-0.864,-0.412,0.965,-9.338,-25.757,-113.647
-0.792,-0.397,1.020,-6.714,-18.005,-117.065
-0.710,-0.357,1.062,-3.052,-9.338,-120.850
-0.592,-0.326,1.077,2.136,0.183,-124.695
-0.482,-0.269,1.074,4.700,10.193,-127.502
-0.357,-0.221,1.055,9.705,19.958,-128.784
-0.219,-0.174,1.037,14.404,30.701,-124.023
-0.018,-0.074,1.031,19.104,41.687,-112.000
0.175,0.014,1.010,22.644,46.692,-108.276
0.414,0.146,0.994,19.043,45.654,-112.244
0.633,0.249,1.014,14.709,38.330,-121.521
0.860,0.311,1.049,13.428,25.269,-129.395
1.084,0.366,1.081,8.667,7.263,-132.874
1.259,0.431,1.109,4.883,-13.611,-132.446
1.386,0.473,1.123,0.916,-32.837,-130.615
1.478,0.512,1.092,-3.906,-46.265,-127.197
1.546,0.559,1.046,-8.667,-53.833,-117.554
1.567,0.588,1.022,-13.062,-56.946,-102.356
1.555,0.601,1.008,-16.357,-54.138,-83.740
1.508,0.603,0.991,-17.456,-44.800,-61.768
1.463,0.612,0.916,-17.334,-32.227,-39.001
1.328,0.604,0.898,-18.005,-24.780,-20.142
1.204,0.581,0.876,-17.700,-16.968,-2.808
1.106,0.521,0.769,-14.832,-4.028,12.939
1.005,0.466,0.667,-14.954,-0.183,28.320
0.923,0.431,0.645,-15.320,-5.188,41.931
0.829,0.393,0.701,-14.832,-14.587,51.392
0.735,0.326,0.761,-11.963,-19.165,59.082
0.628,0.256,0.818,-7.690,-17.700,67.688
0.522,0.203,0.882,-2.869,-9.705,77.209
0.460,0.145,0.925,1.160,2.991,87.524
0.431,0.081,0.922,4.700,16.479,96.252
0.389,0.038,0.939,6.897,25.513,102.783
0.310,-0.002,0.975,9.460,30.640,108.948
0.213,-0.029,1.012,12.634,32.776,115.173
0.035,-0.074,1.077,15.503,31.006,119.446
-0.151,-0.109,1.117,18.616,30.579,122.559
-0.361,-0.141,1.133,24.719,32.471,122.314
-0.508,-0.163,1.132,32.898,36.377,121.582
-0.669,-0.159,1.144,37.231,36.072,116.699
-0.741,-0.128,1.137,36.072,32.471,106.201
-0.765,-0.134,1.068,37.598,25.513,88.562
-0.729,-0.120,1.011,26.672,16.357,69.092
-0.640,-0.098,0.999,15.198,7.629,51.270
-0.510,-0.079,0.999,10.742,0.671,38.818
-0.464,-0.096,1.047,7.507,-7.568,30.212
-0.441,-0.079,1.101,6.592,-12.939,28.015
-0.481,-0.081,1.130,7.019,-13.611,26.733
-0.529,-0.074,1.158,6.714,-12.695,24.536
-0.545,-0.047,1.162,7.080,-7.751,22.156
-0.525,-0.025,1.126,5.859,-2.441,17.456
-0.481,0.001,1.087,3.235,0.610,11.475
-0.408,0.030,1.054,2.380,0.732,5.798
-0.330,0.046,1.030,1.465,-1.343,0.488
-0.258,0.057,1.007,1.099,-4.333,-3.296
-0.194,0.072,1.001,-0.061,-8.118,-5.249
-0.144,0.082,0.997,-0.671,-11.230,-5.310
-0.109,0.099,0.989,-1.160,-12.390,-3.723
-0.099,0.109,0.988,-1.526,-12.207,-2.258
-0.086,0.117,0.982,-1.465,-11.047,-1.648
-0.082,0.129,0.983,-1.709,-9.888,-1.343
-0.068,0.136,0.982,-1.038,-8.423,-1.648
-0.054,0.142,0.977,-0.122,-6.836,-2.258
-0.039,0.143,0.971,0.305,-5.554,-3.113
-0.027,0.140,0.978,0.488,-5.310,-3.662
-0.026,0.139,0.985,1.099,-4.883,-3.662
-0.027,0.140,0.983,1.831,-3.845,-2.930
-0.031,0.138,0.977,2.686,-3.113,-2.319
-0.039,0.140,0.982,3.174,-2.563,-1.709
-0.045,0.141,0.983,3.052,-1.465,-0.793
-0.054,0.137,0.984,2.502,-1.038,-0.549
-0.069,0.132,0.994,1.648,-2.258,-0.305
-0.074,0.135,1.004,0.854,-2.380,0.244
-0.110,0.114,1.016,0.671,-0.977,0.000
-0.109,0.122,1.020,-0.061,1.282,0.854
-0.101,0.127,1.015,-0.122,4.456,1.343
-0.116,0.099,1.012,0.122,5.676,-0.793
-0.101,0.103,1.018,-0.305,5.859,-0.977
-0.102,0.099,1.021,-0.366,6.226,-1.465
-0.098,0.094,1.020,-0.732,6.165,-2.502
-0.090,0.084,1.016,-1.770,5.371,-3.296
-0.084,0.078,1.021,-2.686,3.784,-3.662
-0.082,0.076,1.023,-3.174,2.747,-3.723
-0.083,0.076,1.009,-3.113,1.831,-4.272
-0.085,0.083,1.002,-3.357,-0.244,-5.066
-0.083,0.092,1.003,-3.113,-2.441,-5.981
-0.072,0.093,1.003,-3.357,-3.418,-7.385
-0.061,0.090,1.010,-3.784,-4.150,-8.240
-0.050,0.093,1.016,-3.723,-3.967,-8.240
-0.035,0.094,1.011,-3.662,-2.747,-7.812

1.295,0.863,1.011,-17.395,21.240,-55.237
1.800,0.809,1.020,-21.423,-0.427,-60.669
2.177,0.698,1.170,-29.358,-30.457,-49.500
2.300,0.567,1.266,-34.180,-52.368,-17.029
2.186,0.389,1.244,-44.128,-54.016,25.085
1.936,0.160,1.096,-48.767,-39.307,71.899
1.609,0.017,1.021,-53.284,-21.484,117.737
1.213,-0.104,0.913,-46.204,-4.456,156.799
0.817,-0.263,0.795,-32.715,9.155,187.256
0.366,-0.402,0.796,-22.888,14.404,207.581
-0.137,-0.521,0.870,-11.841,10.803,217.651
-0.689,-0.594,0.989,-4.028,1.038,218.140
-1.237,-0.633,1.093,0.549,-9.094,213.013
-1.684,-0.672,1.151,0.122,-12.939,202.698
-1.931,-0.644,1.157,-5.798,-12.573,189.392
-2.100,-0.612,1.141,-12.573,-13.123,164.001
-2.139,-0.597,1.131,-16.418,-11.475,134.460
-2.135,-0.557,1.144,-18.311,-7.935,105.469
-2.031,-0.561,1.107,-14.954,-2.197,68.359
-2.194,-0.615,1.181,-3.113,13.245,47.974
-1.717,-0.501,0.943,35.950,55.115,89.783
-1.651,-0.601,0.641,34.973,40.466,36.133
-1.620,-0.533,0.706,-24.353,-0.305,-40.771
-1.462,-0.535,0.736,-41.992,-23.315,-69.458
-1.309,-0.510,0.780,-46.265,-36.987,-88.257
-1.161,-0.496,0.773,-44.800,-43.823,-104.004
-1.012,-0.466,0.792,-44.556,-45.776,-119.629
-0.884,-0.452,0.854,-41.443,-45.410,-130.981
-0.778,-0.457,0.914,-33.386,-40.710,-138.794
-0.689,-0.423,0.951,-21.057,-29.724,-140.259
-0.624,-0.391,0.956,-7.080,-15.259,-142.273
-0.576,-0.355,0.957,4.333,-3.540,-145.020
-0.504,-0.311,0.955,12.939,7.507,-147.705
-0.401,-0.258,0.953,20.325,20.020,-149.658
-0.258,-0.190,0.925,28.809,32.410,-149.597
-0.088,-0.093,0.908,31.860,43.091,-149.231
0.103,0.001,0.903,33.264,49.561,-149.109
0.314,0.093,0.936,35.278,51.758,-147.339
0.520,0.184,0.932,38.452,49.500,-144.592
0.723,0.274,0.958,34.973,39.673,-142.395
0.881,0.351,1.051,29.358,21.606,-143.005
0.987,0.376,1.137,27.405,3.967,-142.395
1.056,0.401,1.183,25.269,-9.216,-135.803
1.101,0.451,1.206,19.958,-18.066,-125.916
1.150,0.491,1.182,13.733,-22.522,-115.173
1.196,0.521,1.150,6.226,-25.085,-104.431
1.252,0.561,1.140,-0.488,-25.208,-91.980
1.312,0.587,1.123,-5.249,-21.362,-78.125
1.362,0.607,1.071,-9.460,-15.320,-62.073
1.382,0.634,0.995,-13.977,-11.536,-44.312
1.380,0.640,0.908,-16.907,-11.780,-26.428
1.338,0.639,0.832,-19.531,-15.564,-9.155
1.286,0.599,0.772,-20.203,-20.203,7.751
1.203,0.535,0.745,-18.250,-23.315,24.719
1.092,0.469,0.727,-14.771,-22.766,42.297
0.974,0.400,0.720,-10.742,-18.677,59.875
0.849,0.332,0.737,-6.409,-13.428,74.829
0.737,0.272,0.774,-2.502,-7.874,87.097
0.648,0.215,0.819,0.427,-0.732,97.778
0.564,0.146,0.856,4.028,8.545,107.788
0.458,0.102,0.905,6.775,17.151,118.164
0.332,0.047,0.968,9.888,23.804,127.014
0.152,-0.009,1.053,13.062,29.297,133.362
-0.057,-0.075,1.138,15.686,35.645,137.939
-0.296,-0.121,1.223,17.456,41.748,140.259
-0.520,-0.146,1.274,16.846,46.753,137.817
-0.682,-0.161,1.258,15.015,50.781,130.432
-0.780,-0.173,1.202,14.343,51.575,118.774
-0.808,-0.165,1.140,14.832,47.363,104.248
-0.788,-0.163,1.102,11.169,38.086,87.952
-0.750,-0.152,1.081,8.911,27.649,71.411
-0.672,-0.128,1.010,6.653,18.494,56.335
-0.607,-0.136,0.977,-1.831,10.376,42.480
-0.520,-0.131,0.930,-2.686,3.784,34.790
-0.509,-0.106,0.960,-2.930,-4.944,30.884
-0.514,-0.104,0.990,-1.892,-10.620,27.283
-0.589,-0.137,1.030,0.366,-12.024,23.315
-0.497,-0.034,1.043,2.075,-10.254,22.095
-0.478,-0.068,1.054,3.418,-12.085,9.521
-0.651,-0.141,1.056,4.456,-19.958,-2.502
-0.497,0.060,1.156,1.709,-11.658,9.705
-0.349,0.081,1.016,6.348,12.146,17.944
-0.379,0.014,0.979,2.930,1.953,-5.676
-0.285,0.087,1.072,-1.526,-10.376,-7.446
-0.173,0.127,1.035,2.686,-2.563,-6.470
-0.135,0.124,0.976,6.592,3.601,-11.597
-0.102,0.138,0.969,6.714,2.563,-14.771
-0.059,0.140,0.967,8.667,2.441,-15.808
-0.032,0.139,0.982,11.047,1.221,-16.052
-0.010,0.149,0.978,12.146,1.221,-15.076
-0.000,0.158,0.963,8.789,2.502,-13.672
0.010,0.169,0.960,6.287,1.648,-12.085
0.016,0.178,0.978,4.883,-0.488,-11.414
0.017,0.183,0.983,3.357,-1.892,-10.742
0.015,0.179,0.984,2.869,-2.075,-10.254
0.023,0.183,0.983,2.258,-1.648,-8.179
0.023,0.184,0.992,1.343,-1.404,-6.836
0.024,0.182,1.006,0.916,-0.305,-4.822
0.009,0.174,1.030,0.488,1.648,-3.052
-0.008,0.169,1.041,0.488,4.456,-1.770
-0.018,0.164,1.038,1.099,7.507,0.061
-0.028,0.159,1.033,1.221,9.216,1.160
-0.042,0.152,1.030,0.488,9.216,1.648
-0.054,0.143,1.033,-0.061,8.240,1.282
-0.055,0.132,1.032,-0.916,7.080,0.549
-0.054,0.124,1.036,-1.831,5.310,-0.366
-0.060,0.114,1.039,-2.563,3.723,-1.099
-0.051,0.109,1.031,-3.113,2.319,-1.770
-0.044,0.110,1.031,-4.395,-0.610,-2.380
-0.045,0.090,1.006,-4.272,-4.333,-2.747
-0.069,0.108,1.054,-6.348,-11.475,-3.784
-0.071,0.078,1.035,-4.333,-9.949,-5.920
-0.075,0.084,1.022,-2.869,-6.714,-5.066
-0.070,0.095,1.004,-2.502,-4.333,-4.395
-0.065,0.091,0.983,-1.892,-3.052,-5.249
-0.062,0.091,0.974,-1.709,-3.113,-5.554
-0.058,0.095,0.971,-1.526,-3.113,-4.822
-0.057,0.099,0.973,-0.244,-2.136,-3.845
-0.077,0.095,0.968,1.831,-1.587,-3.845

1.702,0.622,0.927,-22.217,17.578,-94.788
2.123,0.595,0.991,-28.931,2.930,-79.834
2.390,0.570,1.161,-34.058,-10.925,-46.570
2.411,0.449,1.233,-28.931,-19.653,0.305
2.179,0.324,1.139,-16.174,-19.043,55.115
1.840,0.255,0.977,2.808,-13.489,104.736
1.448,0.157,0.891,8.118,-10.437,135.315
1.078,0.049,0.875,14.343,-6.836,150.635
0.764,-0.063,0.813,21.973,-3.235,161.804
0.419,-0.129,0.831,26.428,-5.127,173.279
0.004,-0.239,0.903,33.936,-9.277,180.054
-0.379,-0.361,0.947,36.377,-11.230,183.777
-0.751,-0.447,1.009,30.945,-11.475,185.913
-1.062,-0.478,1.093,17.578,-8.728,184.143
-1.269,-0.543,1.152,10.315,-0.610,180.115
-1.433,-0.572,1.192,8.423,8.057,172.241
-1.523,-0.567,1.215,3.906,14.771,156.006
-1.494,-0.568,1.186,2.441,21.667,139.893
-1.339,-0.558,1.142,4.639,23.193,118.774
-1.886,-0.598,1.360,13.306,30.273,107.361
-1.376,-0.529,1.132,63.721,85.815,162.415
-1.292,-0.605,0.870,70.496,70.862,105.286
-1.504,-0.661,0.914,15.015,14.832,19.470
-1.511,-0.595,1.021,-7.080,-15.564,-6.409
-1.428,-0.603,0.967,-9.949,-19.531,-24.292
-1.353,-0.606,0.881,-15.564,-24.170,-44.617
-1.267,-0.599,0.827,-27.283,-33.997,-62.561
-1.153,-0.532,0.854,-39.429,-44.861,-75.684
-1.048,-0.524,0.909,-45.593,-48.340,-89.417
-0.982,-0.517,0.951,-54.504,-47.852,-109.741
-0.944,-0.492,1.036,-62.317,-38.635,-122.131
-0.919,-0.480,1.083,-53.833,-15.442,-123.962
-0.849,-0.468,1.094,-40.405,10.620,-126.953
-0.774,-0.446,1.133,-27.527,30.457,-134.216
-0.677,-0.485,1.065,-7.935,32.471,-138.245
-0.593,-0.418,1.048,-1.587,27.527,-143.311
-0.477,-0.328,1.061,-1.221,26.001,-151.489
-0.302,-0.257,1.019,4.639,31.555,-159.241
-0.070,-0.153,0.980,7.202,38.574,-167.725
0.157,-0.075,0.984,8.362,41.016,-177.246
0.423,0.009,0.991,6.958,41.687,-185.730
0.677,0.107,1.011,0.427,40.100,-193.054
0.928,0.176,1.039,-2.563,30.884,-195.129
1.164,0.231,1.087,-4.272,14.771,-190.918
1.322,0.268,1.156,-7.385,-5.249,-183.350
1.446,0.306,1.153,-10.620,-20.569,-168.823
1.505,0.353,1.075,-14.648,-32.410,-149.902
1.591,0.442,0.994,-20.447,-45.715,-127.319
1.576,0.525,0.952,-25.024,-57.678,-107.788
1.544,0.561,0.908,-25.635,-60.791,-88.135
1.484,0.579,0.875,-24.109,-56.641,-65.369
1.430,0.602,0.843,-21.851,-48.462,-40.833
1.339,0.612,0.809,-19.653,-41.077,-17.700
1.233,0.601,0.777,-17.090,-36.194,1.526
1.113,0.588,0.752,-14.648,-34.424,17.517
1.001,0.553,0.739,-12.573,-34.851,29.297
0.902,0.492,0.738,-9.949,-36.377,37.292
0.831,0.431,0.747,-7.263,-36.072,43.701
0.763,0.370,0.776,-3.906,-32.898,49.744
0.703,0.303,0.814,1.099,-25.818,57.434
0.648,0.241,0.878,8.484,-14.343,66.772
0.589,0.125,0.836,21.606,-1.892,78.918
0.544,0.073,0.884,19.653,8.911,93.018
0.462,0.022,0.960,18.616,16.174,105.042
0.365,-0.044,0.964,23.621,24.536,114.380
0.245,-0.090,0.986,21.118,29.175,122.864
0.068,-0.142,1.037,19.226,27.466,130.371
-0.126,-0.181,1.092,19.348,24.292,135.071
-0.361,-0.200,1.141,20.752,21.362,135.254
-0.574,-0.208,1.156,21.240,19.653,131.104
-0.732,-0.207,1.124,18.433,17.822,122.742
-0.822,-0.190,1.096,13.123,14.160,108.459
-0.835,-0.163,1.068,5.249,8.362,90.454
-0.795,-0.136,1.047,-0.671,1.892,71.289
-0.726,-0.109,1.026,-5.615,-2.869,52.917
-0.618,-0.081,1.011,-7.568,-4.211,38.513
-0.513,-0.064,1.013,-8.118,-4.150,28.015
-0.411,-0.053,1.000,-7.385,-2.319,21.545
-0.320,-0.047,0.981,-5.188,-0.610,18.494
-0.261,-0.026,0.992,-4.089,-2.319,17.151
-0.204,0.057,1.023,-1.953,-1.953,20.386
-0.244,-0.013,0.983,1.770,0.549,17.395
-0.303,0.029,1.048,1.343,-7.507,12.939
-0.307,0.036,1.043,3.845,-4.333,19.287
-0.302,0.060,0.998,5.737,3.540,25.391
-0.277,0.122,0.970,3.540,8.484,30.273
-0.261,0.162,0.960,3.174,11.353,31.372
-0.220,0.174,0.948,4.272,13.000,27.344
-0.170,0.183,0.957,5.554,11.108,24.353
-0.121,0.199,0.987,6.775,7.263,22.522
-0.078,0.205,1.014,9.216,5.371,18.372
-0.056,0.189,1.023,14.343,4.456,13.794
-0.042,0.158,1.017,17.700,3.418,11.108
-0.037,0.150,1.033,13.794,2.136,10.742
-0.053,0.140,1.068,10.681,-0.122,10.864
-0.079,0.139,1.109,10.010,-1.526,11.047
-0.095,0.122,1.093,10.986,-1.282,10.498
-0.104,0.115,1.072,10.498,-1.465,9.399
-0.110,0.103,1.034,9.460,-3.601,8.362
-0.103,0.106,1.020,5.371,-5.493,7.690
-0.093,0.109,1.028,3.418,-7.507,7.202
-0.083,0.096,1.025,6.042,-8.789,6.104
-0.079,0.089,1.031,7.507,-9.277,5.127
-0.071,0.075,1.008,9.766,-9.033,5.249
-0.069,0.067,1.017,7.141,-6.775,5.981
-0.072,0.057,1.026,7.874,-3.906,7.019
-0.083,0.049,1.027,8.911,-0.549,8.545
-0.093,0.037,1.009,10.010,2.686,9.949
-0.095,0.038,0.988,9.583,4.517,11.108
-0.105,0.044,0.980,6.592,5.066,11.414
-0.115,0.043,0.969,5.859,4.395,10.803
-0.128,0.044,0.966,4.578,2.563,9.460
-0.129,0.049,0.953,1.770,0.183,7.080
-0.124,0.046,0.954,-0.916,-2.197,4.272
-0.115,0.046,0.967,-3.540,-4.150,1.709
-0.106,0.043,0.985,-4.822,-5.554,0.305
-0.103,0.043,0.988,-4.700,-5.615,-0.244
-0.103,0.042,0.987,-4.517,-5.066,0.244
-0.117,0.043,0.999,-4.639,-4.028,0.610

-1.419,-0.409,1.125,-23.560,-13.123,13.184
-1.628,-0.477,1.058,-22.766,-7.019,-1.892
-1.728,-0.465,1.074,-24.170,-2.625,-22.522
-1.754,-0.514,1.064,-16.846,1.404,-47.302
-1.619,-0.542,1.084,-11.108,9.766,-76.172
-1.400,-0.580,1.112,-6.958,17.334,-102.844
-1.160,-0.621,1.115,-2.686,25.696,-124.084
-0.935,-0.653,1.090,3.357,34.729,-138.245
-0.701,-0.631,1.085,7.690,41.687,-147.522
-0.467,-0.569,1.083,8.728,44.800,-155.212
-0.227,-0.437,1.080,7.263,44.922,-159.485
0.011,-0.282,1.053,6.287,45.105,-162.170
0.275,-0.138,1.009,6.348,45.349,-163.635
0.532,0.055,1.013,5.188,40.833,-162.720
0.802,0.217,1.020,4.456,35.034,-163.147
1.092,0.392,1.046,0.366,29.480,-159.790
1.409,0.470,1.049,-3.174,21.790,-156.555
1.687,0.542,1.106,-6.714,10.742,-150.513
1.919,0.600,1.174,-9.521,-0.427,-139.648
2.094,0.644,1.194,-12.085,-10.376,-124.939
2.169,0.721,1.193,-16.479,-23.926,-103.149
2.134,0.737,1.142,-21.423,-36.194,-79.041
2.011,0.738,1.069,-26.123,-41.809,-53.711
1.853,0.719,0.995,-30.518,-40.161,-29.541
1.693,0.703,0.914,-34.668,-32.288,-6.958
1.545,0.673,0.822,-36.987,-21.057,13.367
1.424,0.636,0.730,-36.926,-7.996,31.555
1.323,0.575,0.651,-33.203,3.052,47.729
1.257,0.522,0.625,-26.855,11.047,62.317
1.164,0.459,0.662,-17.944,14.771,74.097
1.006,0.365,0.677,0.488,14.709,84.045
0.894,0.270,0.752,10.193,16.663,93.994
0.797,0.161,0.771,7.568,25.635,106.445
0.755,0.081,0.787,5.066,36.011,118.225
0.686,-0.010,0.836,3.357,43.762,128.113
0.645,-0.099,0.857,5.310,46.875,140.137
0.571,-0.197,0.887,8.057,43.945,153.687
0.453,-0.290,0.943,9.399,41.565,165.710
0.289,-0.366,0.994,9.827,43.274,175.415
0.131,-0.454,1.062,9.827,43.457,184.814
-0.030,-0.536,1.142,12.573,41.199,192.383
-0.202,-0.595,1.175,14.099,39.124,195.862
-0.390,-0.637,1.156,16.296,35.828,194.885
-0.569,-0.666,1.108,18.799,28.320,188.843
-0.734,-0.667,1.035,17.395,15.930,178.101
-0.875,-0.641,0.968,11.414,0.061,163.330
-0.995,-0.589,0.929,5.127,-17.883,143.982
-1.080,-0.556,0.873,-1.831,-35.583,122.742
-1.153,-0.548,0.848,-7.690,-55.664,101.685
-1.235,-0.488,0.930,-17.456,-76.233,82.214
-1.353,-0.464,0.985,-18.372,-80.261,62.256
-1.739,-0.705,1.110,-9.949,-72.266,39.429
-1.296,-0.261,1.044,9.644,-25.635,67.017
-1.199,-0.370,0.726,41.443,11.230,61.218
-1.405,-0.338,0.920,2.502,-25.635,-5.615
-1.209,-0.254,1.045,-11.414,-36.682,-29.236
-1.233,-0.381,0.953,2.930,-21.057,-47.668
-1.074,-0.216,1.041,5.432,-32.654,-45.654
-0.972,-0.247,1.033,7.629,-25.513,-56.519
-0.771,-0.211,1.024,11.169,-15.076,-64.636
-0.596,-0.165,1.000,11.780,-8.362,-70.496
-0.459,-0.125,1.017,10.620,-4.028,-78.369
-0.314,-0.085,1.047,9.583,4.089,-83.069
-0.167,-0.035,1.063,11.414,17.334,-83.191
-0.018,0.005,1.055,12.817,31.982,-82.642
0.128,0.056,1.059,14.099,42.603,-81.360
0.255,0.088,1.044,15.869,47.302,-78.918
0.381,0.144,1.052,13.672,47.302,-75.317
0.493,0.187,1.036,12.146,45.227,-70.984
0.594,0.218,1.021,10.620,41.382,-64.697
0.648,0.247,1.016,7.202,33.630,-56.274
0.670,0.278,1.001,3.784,26.123,-46.997
0.658,0.294,0.988,1.526,18.860,-37.109
0.605,0.294,0.982,-0.061,11.475,-27.466
0.534,0.297,0.976,-0.183,5.920,-17.578
0.449,0.294,0.984,0.732,2.075,-8.911
0.367,0.295,0.989,1.953,-0.305,-2.380
0.293,0.286,0.987,2.197,-2.319,2.136
0.216,0.270,0.997,1.587,-4.211,5.066
0.141,0.242,1.001,1.526,-5.188,6.531
0.081,0.219,1.002,1.282,-3.845,7.568
0.049,0.197,0.991,2.930,-0.732,8.667
0.016,0.169,0.938,5.493,2.563,9.644
-0.008,0.157,0.938,1.648,4.211,9.949
-0.024,0.135,0.950,0.916,4.578,9.583
-0.034,0.120,0.971,1.343,5.432,8.606
-0.039,0.106,0.995,0.793,6.775,7.507
-0.032,0.091,1.007,0.793,8.057,6.042
-0.017,0.067,1.033,-0.549,8.240,3.906
0.003,0.047,1.052,-1.465,7.874,2.075
0.024,0.030,1.061,-1.953,7.690,0.732
0.036,0.022,1.074,-2.869,7.141,0.122
0.041,0.020,1.074,-3.784,6.714,0.061
0.047,0.024,1.053,-4.150,6.409,0.610
0.050,0.026,1.040,-5.249,5.249,0.977
0.049,0.034,1.030,-6.165,4.028,1.587
0.047,0.043,1.016,-6.470,3.052,2.380
0.037,0.058,1.013,-6.226,2.075,3.235
0.019,0.066,0.996,-5.737,2.014,4.089
0.001,0.081,0.971,-4.944,2.869,4.761
-0.013,0.085,0.949,-4.700,3.479,5.005
0.001,0.094,0.947,-3.784,3.845,5.005
0.009,0.121,0.972,-3.235,4.028,5.920
-0.021,0.077,0.962,-1.709,2.869,5.127
-0.042,0.106,1.013,-2.075,-1.892,5.310
-0.039,0.097,1.010,1.099,2.441,5.493
-0.050,0.102,1.007,2.502,6.775,5.249
-0.040,0.107,0.997,2.686,8.911,4.395
-0.021,0.112,0.993,2.258,8.606,3.540
-0.009,0.117,0.991,1.770,7.080,2.930
-0.003,0.117,0.996,2.258,5.249,2.563
0.005,0.115,1.001,2.502,3.967,2.197
0.016,0.111,1.005,2.563,3.052,1.770
0.022,0.113,1.022,2.686,1.892,1.587
0.035,0.107,1.022,2.380,1.160,0.854
0.056,0.100,1.011,1.770,0.366,0.366
0.076,0.106,1.019,1.709,-0.793,0.671
0.109,0.108,1.002,2.319,-0.732,1.038
0.138,0.118,0.985,2.258,-1.282,1.587

-1.328,-0.383,1.156,-24.048,-3.540,-23.560
-1.469,-0.408,1.211,-19.653,-4.272,-42.480
-1.490,-0.422,1.192,-13.123,-0.977,-64.331
-1.383,-0.444,1.125,-7.935,5.554,-86.121
-1.199,-0.472,1.071,-6.836,12.207,-104.736
-1.008,-0.499,1.041,-6.104,18.433,-119.751
-0.797,-0.498,1.032,-4.333,24.963,-128.357
-0.612,-0.498,1.029,-3.113,30.762,-134.521
-0.436,-0.439,0.999,0.183,35.767,-140.808
-0.233,-0.354,0.974,-0.916,32.043,-147.644
-0.016,-0.233,0.976,0.061,23.926,-153.503
0.220,-0.126,0.991,3.967,16.663,-159.851
0.460,-0.036,1.028,8.179,8.118,-165.405
0.718,0.068,1.053,11.230,-3.052,-169.373
0.985,0.139,1.094,12.573,-17.029,-172.668
1.264,0.197,1.173,9.644,-34.241,-173.706
1.550,0.251,1.250,5.005,-46.570,-168.518
1.818,0.301,1.287,-0.305,-51.086,-161.438
2.038,0.344,1.292,-6.470,-52.246,-148.376
2.182,0.363,1.247,-11.963,-52.551,-126.404
2.228,0.376,1.178,-16.541,-52.185,-95.825
2.179,0.402,1.100,-19.470,-48.889,-61.401
2.038,0.414,1.012,-22.034,-42.603,-27.466
1.872,0.415,0.891,-23.132,-34.119,2.747
1.688,0.410,0.785,-23.132,-28.259,28.503
1.491,0.385,0.734,-21.912,-25.574,48.767
1.326,0.343,0.700,-19.409,-20.813,64.331
1.203,0.294,0.694,-17.151,-14.954,73.120
1.027,0.211,0.712,-10.071,-14.954,78.552
0.863,0.147,0.748,-1.587,-15.930,88.623
0.693,0.075,0.800,4.944,-15.320,102.722
0.538,0.004,0.841,6.775,-5.554,116.516
0.401,-0.054,0.870,2.502,8.911,127.930
0.249,-0.099,0.914,-4.822,23.621,136.230
0.121,-0.134,0.941,-7.812,36.987,144.714
0.028,-0.178,0.964,-11.292,45.776,154.846
-0.049,-0.224,0.986,-12.756,48.096,164.368
-0.122,-0.237,1.071,-14.832,52.490,170.227
-0.125,-0.294,1.133,-10.925,58.472,172.424
-0.164,-0.334,1.202,2.625,53.101,173.279
-0.265,-0.366,1.248,11.230,46.631,173.828
-0.380,-0.395,1.231,16.479,40.222,172.607
-0.508,-0.404,1.167,17.395,33.142,167.603
-0.636,-0.396,1.077,14.099,22.156,157.349
-0.779,-0.398,0.993,7.141,5.798,141.541
-0.877,-0.395,0.929,-1.587,-12.512,121.887
-0.913,-0.411,0.799,-10.742,-29.297,100.464
-0.954,-0.408,0.782,-14.526,-58.105,86.731
-1.024,-0.385,0.859,-28.076,-80.627,66.101
-1.009,-0.421,0.858,-30.823,-76.538,44.739
-0.956,-0.428,0.858,-27.588,-69.092,33.875
-0.770,-0.366,0.868,-30.334,-67.505,22.827
-1.457,-0.420,1.287,-30.945,-56.152,18.250
-0.781,-0.285,0.755,18.738,17.700,56.580
-1.046,-0.316,0.751,6.470,-4.028,8.667
-1.100,-0.202,0.932,-19.348,-24.414,-22.522
-1.110,-0.298,0.878,-4.028,-25.391,-40.283
-1.121,-0.217,1.009,-7.751,-48.035,-49.622
-0.979,-0.151,0.993,4.639,-38.879,-48.523
-0.815,-0.121,0.949,11.414,-22.583,-59.570
-0.606,-0.071,0.934,10.071,-13.123,-73.364
-0.421,-0.050,0.952,6.775,-4.700,-85.388
-0.250,-0.026,0.981,5.737,1.892,-89.233
-0.063,-0.008,1.004,6.531,13.000,-85.083
0.098,0.062,1.076,6.470,22.400,-77.332
0.233,0.109,1.130,4.517,35.095,-74.341
0.323,0.127,1.146,5.310,47.058,-73.181
0.410,0.173,1.141,6.897,53.833,-67.261
0.492,0.208,1.099,11.108,55.725,-60.181
0.574,0.243,1.065,13.428,51.575,-52.673
0.616,0.282,1.069,13.123,42.175,-43.823
0.616,0.316,1.083,12.329,32.227,-35.095
0.579,0.318,1.094,9.460,23.437,-26.917
0.521,0.323,1.098,5.798,16.052,-18.616
0.450,0.313,1.108,2.563,10.315,-11.108
0.372,0.293,1.105,-0.610,7.080,-4.883
0.301,0.280,1.085,-2.808,5.432,0.549
0.229,0.263,1.061,-4.333,3.418,5.188
0.163,0.240,1.041,-4.822,1.587,7.385
0.103,0.209,1.041,-4.395,0.610,8.545
0.043,0.175,1.048,-3.601,0.854,9.155
0.001,0.138,1.025,-3.113,1.953,9.094
-0.019,0.111,0.999,-2.747,3.052,8.423
-0.035,0.086,0.979,-2.258,2.869,7.568
-0.055,0.076,0.975,-2.258,2.258,6.714
-0.082,0.068,0.979,-2.563,1.709,5.737
-0.109,0.064,0.976,-2.197,1.648,4.272
-0.124,0.065,0.968,-1.831,2.075,1.404
-0.113,0.056,0.979,-2.441,1.831,-2.380
-0.085,0.049,1.014,-3.235,0.977,-6.714
-0.039,0.039,1.043,-3.784,1.099,-10.376
0.008,0.024,1.059,-3.540,1.831,-12.756
0.037,0.020,1.077,-2.991,2.563,-13.062
0.051,0.022,1.082,-2.625,3.296,-12.207
0.060,0.023,1.070,-2.930,4.395,-10.864
0.061,0.028,1.047,-3.845,5.066,-9.216
0.062,0.036,1.023,-4.700,5.127,-7.324
0.058,0.050,1.001,-4.944,4.883,-5.249
0.045,0.066,0.987,-4.822,3.906,-3.418
0.023,0.078,0.983,-4.272,2.563,-2.136
-0.009,0.085,0.991,-3.967,1.465,-1.465
-0.024,0.092,0.984,-3.662,0.977,-0.305
-0.038,0.099,0.983,-4.150,-0.183,0.183
-0.046,0.111,0.989,-3.662,-0.671,0.244
-0.082,0.092,1.009,-2.441,-2.808,-0.488
-0.121,0.098,1.072,-3.418,-6.226,-1.465
-0.135,0.086,1.077,-1.099,-1.221,-2.197
-0.151,0.077,1.057,0.000,3.906,-2.991
-0.151,0.076,1.043,-0.366,5.493,-3.845
-0.152,0.070,1.045,-0.610,5.554,-5.493
-0.166,0.059,1.055,-1.343,4.456,-7.751
-0.184,0.048,1.051,-1.831,3.418,-9.155
-0.200,0.045,1.039,-2.380,2.625,-10.498
-0.210,0.040,1.027,-3.540,0.916,-12.939
-0.222,0.034,1.015,-4.883,-1.953,-16.174
-0.235,0.035,1.013,-6.226,-4.883,-19.958
-0.246,0.043,1.005,-7.202,-6.836,-23.743
-0.237,0.059,0.988,-7.690,-6.775,-27.649
-0.216,0.087,0.974,-7.812,-5.798,-32.227

1.642,0.584,1.009,-12.146,9.888,-62.195
2.022,0.553,1.116,-14.221,2.136,-52.368
2.193,0.461,1.231,-17.151,-5.432,-29.907
2.191,0.334,1.276,-21.545,-9.888,3.662
2.034,0.185,1.244,-22.705,-7.874,44.739
1.785,0.091,1.137,-21.484,-2.136,83.740
1.449,0.011,1.035,-21.423,3.174,110.535
1.119,-0.071,0.980,-21.790,7.202,133.240
0.798,-0.151,0.937,-17.944,10.010,154.480
0.425,-0.212,0.927,-12.390,7.812,171.814
0.053,-0.261,0.931,-2.991,2.686,183.472
-0.312,-0.298,0.944,4.639,-2.991,187.927
-0.680,-0.350,0.976,11.475,-7.568,185.608
-1.021,-0.343,0.988,14.954,-8.850,179.810
-1.267,-0.371,0.964,21.484,-6.470,170.593
-1.367,-0.366,0.941,16.785,-4.761,162.842
-1.379,-0.386,0.906,7.874,-6.531,147.217
-1.369,-0.412,0.917,-0.488,-10.803,126.587
-1.381,-0.438,0.958,-2.686,-14.160,106.995
-1.397,-0.452,1.003,-4.150,-15.381,88.867
-1.424,-0.443,1.029,-5.920,-15.076,70.129
-1.660,-0.546,1.119,-6.470,-13.733,44.067
-1.380,-0.370,1.065,23.315,20.874,56.946
-1.196,-0.487,0.827,59.937,47.058,60.852
-1.238,-0.504,0.841,0.671,8.606,-8.728
-1.264,-0.479,0.925,-30.396,-18.494,-51.270
-1.178,-0.476,0.915,-29.846,-16.602,-63.477
-1.042,-0.452,0.820,-15.564,-4.395,-63.232
-0.913,-0.426,0.779,-15.076,-4.272,-73.975
-0.820,-0.407,0.788,-21.973,-11.658,-86.609
-0.825,-0.375,0.867,-24.963,-17.273,-94.421
-0.663,-0.347,0.808,-15.381,-7.324,-93.811
-0.673,-0.335,0.820,-7.141,-10.071,-101.135
-0.737,-0.284,0.925,-17.517,-20.996,-112.976
-0.720,-0.286,0.985,-13.794,-14.404,-119.751
-0.629,-0.292,0.974,5.127,3.540,-117.493
-0.500,-0.248,0.976,11.963,18.860,-115.173
-0.346,-0.187,0.969,16.907,31.799,-116.577
-0.167,-0.110,0.956,19.409,41.382,-119.629
0.036,-0.019,0.955,20.264,47.852,-120.178
0.265,0.083,0.973,19.775,49.988,-123.474
0.495,0.192,1.007,19.165,46.143,-129.822
0.730,0.273,1.060,15.503,35.217,-140.015
0.961,0.322,1.127,15.808,18.311,-148.071
1.158,0.346,1.170,13.855,1.770,-150.757
1.321,0.367,1.183,9.094,-10.803,-147.766
1.476,0.397,1.176,3.357,-19.409,-135.681
1.585,0.427,1.139,-2.686,-25.818,-116.943
1.652,0.486,1.152,-9.766,-32.288,-95.459
1.696,0.503,1.160,-15.503,-32.959,-72.693
1.698,0.512,1.141,-18.005,-27.588,-48.157
1.664,0.522,1.088,-19.958,-20.264,-22.339
1.593,0.515,1.002,-20.752,-13.672,1.831
1.494,0.486,0.915,-19.714,-10.620,23.987
1.370,0.438,0.865,-16.968,-11.658,43.518
1.214,0.384,0.828,-12.207,-14.282,56.458
1.008,0.316,0.842,-6.348,-17.700,62.317
0.793,0.247,0.888,1.099,-19.470,63.599
0.569,0.136,0.883,10.376,-16.235,58.350
0.349,0.061,0.919,12.573,-10.681,54.199
0.118,-0.007,0.924,18.982,-3.967,62.866
-0.148,-0.067,0.952,19.226,1.282,74.341
-0.370,-0.119,1.017,13.733,9.460,85.571
-0.569,-0.153,1.015,14.343,18.616,94.421
-0.715,-0.148,1.010,12.939,23.865,99.854
-0.823,-0.153,1.004,9.766,23.621,94.299
-0.856,-0.149,1.022,2.563,20.691,86.304
-0.795,-0.137,1.027,-2.197,18.616,79.590
-0.713,-0.164,1.020,-0.244,16.663,71.777
-0.620,-0.173,1.004,3.174,16.052,66.162
-0.520,-0.142,0.975,3.418,13.428,58.472
-0.444,-0.147,0.934,-0.366,9.033,41.931
-0.365,-0.122,0.921,-3.784,6.409,27.100
-0.328,-0.094,0.930,-4.700,4.089,15.198
-0.308,-0.070,0.961,-2.136,3.662,11.658
-0.324,-0.042,1.002,1.587,4.089,11.230
-0.354,-0.012,1.051,3.845,3.296,10.132
-0.361,0.007,1.099,3.113,2.258,6.836
-0.344,0.030,1.143,0.977,2.075,2.258
-0.300,0.061,1.144,-1.099,3.723,-2.075
-0.245,0.076,1.130,-4.578,6.104,-6.592
-0.114,0.121,1.080,-9.216,11.963,-9.155
-0.039,0.097,0.999,-5.615,10.315,-10.803
-0.033,0.179,1.108,-12.451,-3.357,-12.390
0.028,0.144,1.077,-9.399,1.160,-16.724
0.065,0.118,1.020,-5.737,9.460,-15.930
0.116,0.158,0.997,-5.920,14.343,-8.789
0.146,0.171,0.951,-4.272,17.761,-4.333
0.161,0.189,0.947,-3.845,14.709,-1.770
0.147,0.194,0.978,-4.700,9.277,-0.732
0.133,0.184,0.982,-2.930,7.202,0.122
0.126,0.176,0.978,-0.244,6.714,1.221
0.105,0.169,0.981,1.404,5.188,1.587
0.091,0.165,0.979,1.282,3.113,2.075
0.078,0.159,0.981,0.732,1.221,2.441
0.061,0.150,0.986,-0.977,-0.244,2.380
0.044,0.137,0.979,-2.319,-1.465,2.869
0.015,0.127,0.982,-3.235,-3.174,3.845
0.017,0.134,0.990,-3.052,-4.700,5.066
-0.007,0.132,1.003,-2.930,-6.531,5.005
-0.033,0.123,1.018,-1.587,-6.897,3.296
-0.034,0.122,1.020,0.549,-5.981,2.441
-0.035,0.108,1.013,3.113,-4.761,0.854
-0.036,0.096,1.012,5.127,-3.357,-1.038
-0.028,0.083,1.012,6.653,-1.526,-2.502
-0.020,0.073,1.008,7.324,1.526,-3.235
-0.016,0.068,1.004,7.751,3.906,-3.296
-0.015,0.063,1.008,8.301,4.761,-3.357
-0.025,0.055,1.009,8.606,4.761,-3.235
-0.030,0.050,0.997,8.484,4.395,-2.991
-0.048,0.046,0.993,6.348,2.747,-3.052
-0.064,0.051,1.001,3.296,0.549,-3.113
-0.071,0.041,1.001,0.732,-1.221,-3.845
-0.071,0.041,1.007,-1.526,-2.930,-4.517
-0.077,0.043,1.024,-2.747,-4.395,-4.639
-0.099,0.047,1.041,-3.052,-4.517,-4.639
-0.113,0.044,1.042,-2.991,-3.296,-5.798
-0.127,0.038,1.043,-2.991,-1.587,-7.385
-0.143,0.038,1.041,-2.441,0.793,-8.606

1.461,0.649,1.033,-29.480,20.264,-48.157
1.799,0.654,1.107,-31.616,2.625,-41.504
2.055,0.614,1.179,-36.133,-12.695,-25.452
2.145,0.538,1.281,-43.091,-21.301,-0.427
2.066,0.401,1.311,-45.654,-16.479,31.982
1.884,0.255,1.152,-32.227,-3.540,67.505
1.627,0.163,0.994,-24.536,6.042,97.900
1.314,0.065,0.849,-10.742,8.606,123.291
1.022,-0.083,0.730,4.578,4.639,146.606
0.657,-0.127,0.722,16.296,-7.324,167.297
0.233,-0.212,0.783,22.705,-22.217,178.772
-0.198,-0.276,0.826,21.851,-32.715,183.228
-0.587,-0.282,0.808,18.616,-38.696,185.425
-0.904,-0.293,0.758,13.489,-41.687,178.223
-1.141,-0.313,0.729,8.362,-43.030,166.504
-1.297,-0.317,0.664,10.681,-43.396,156.677
-1.364,-0.325,0.638,10.986,-44.678,140.442
-1.366,-0.329,0.588,10.254,-45.715,121.155
-1.365,-0.384,0.569,11.475,-48.218,97.900
-1.366,-0.409,0.608,12.390,-50.537,76.172
-1.733,-0.517,0.832,8.545,-48.096,54.993
-1.401,-0.466,0.792,35.278,-3.357,74.585
-1.299,-0.590,0.727,53.345,4.883,58.960
-1.519,-0.634,0.933,22.034,-24.475,4.211
-1.529,-0.604,1.149,-5.066,-35.522,-24.170
-1.427,-0.597,1.200,-12.512,-23.682,-42.297
-1.329,-0.551,1.197,-11.536,-12.390,-60.547
-1.184,-0.521,1.183,-13.916,-7.507,-75.562
-1.063,-0.487,1.130,-13.245,-1.953,-86.304
-1.005,-0.461,1.067,-10.193,4.944,-95.093
-1.000,-0.424,1.028,-8.362,12.878,-101.196
-1.008,-0.406,1.006,-3.357,24.902,-105.286
-0.981,-0.390,1.010,1.038,38.696,-108.948
-0.918,-0.385,0.999,4.028,49.072,-113.953
-0.875,-0.400,1.011,6.042,54.810,-119.141
-0.647,-0.383,0.932,9.888,65.674,-119.812
-0.514,-0.377,0.883,16.724,64.148,-119.873
-0.343,-0.274,0.938,19.287,59.143,-114.746
-0.164,-0.226,0.956,26.001,66.711,-113.342
0.084,-0.221,0.897,32.471,73.853,-110.535
0.359,-0.098,0.898,30.029,68.970,-101.318
0.617,-0.004,0.922,19.592,60.547,-109.253
0.832,0.127,0.996,2.991,45.349,-130.249
1.000,0.200,1.059,-2.869,29.541,-145.752
1.161,0.253,1.080,-5.432,14.343,-155.823
1.291,0.282,1.067,-8.362,-1.526,-158.936
1.389,0.321,1.040,-12.573,-16.541,-154.663
1.482,0.380,0.999,-15.686,-28.992,-144.287
1.568,0.410,0.944,-19.958,-38.818,-133.606
1.671,0.455,0.916,-21.423,-46.448,-117.432
1.739,0.497,0.911,-21.362,-48.035,-97.473
1.795,0.533,0.901,-19.958,-43.274,-73.914
1.790,0.548,0.880,-16.541,-34.973,-47.546
1.735,0.536,0.870,-13.855,-28.259,-20.203
1.669,0.531,0.886,-10.803,-24.231,4.883
1.515,0.452,0.866,-9.521,-20.569,20.142
1.332,0.398,0.864,-7.935,-20.081,31.616
1.126,0.328,0.887,-7.385,-24.353,37.781
0.929,0.251,0.901,-4.089,-31.311,37.231
0.729,0.142,0.901,4.761,-35.461,38.269
0.541,0.037,0.896,6.653,-29.968,44.983
0.371,0.004,0.927,3.418,-21.729,56.946
0.158,0.000,0.960,2.625,-14.954,71.350
-0.053,-0.050,1.003,-1.587,-4.333,83.008
-0.263,-0.090,1.035,-5.127,10.620,99.731
-0.406,-0.088,1.101,-9.216,24.536,108.154
-0.539,-0.113,1.121,-5.493,31.189,118.591
-0.619,-0.110,1.124,-1.038,38.086,124.146
-0.642,-0.118,1.131,2.563,40.833,122.925
-0.626,-0.118,1.159,7.202,39.429,117.737
-0.628,-0.153,1.127,22.949,38.391,111.755
-0.608,-0.153,1.073,32.654,35.950,108.215
-0.594,-0.161,1.024,34.241,31.372,102.051
-0.563,-0.150,0.979,26.978,21.545,87.097
-0.535,-0.135,0.957,11.658,7.751,62.622
-0.531,-0.116,0.970,-1.648,-3.174,38.269
-0.510,-0.090,0.981,-6.409,-7.996,23.926
-0.466,-0.061,0.985,-4.944,-7.629,17.517
-0.403,-0.026,1.000,-3.479,-6.348,12.329
-0.370,-0.001,1.036,-2.808,-5.310,5.493
-0.324,0.013,1.065,-1.404,-3.967,0.610
-0.289,0.025,1.096,0.488,-2.014,-1.099
-0.310,0.042,1.118,0.977,-0.061,-2.319
-0.305,0.049,1.195,-2.625,2.563,-3.174
-0.112,0.076,1.044,0.183,10.681,-3.784
-0.165,0.036,1.083,-9.460,-5.859,-21.545
-0.130,0.100,1.192,-20.386,-15.564,-16.663
-0.077,0.107,1.142,-12.207,-0.244,-6.042
-0.047,0.114,1.066,-9.277,12.207,-3.845
0.016,0.137,0.979,-6.409,19.348,0.000
0.081,0.177,0.942,-6.348,16.785,0.732
0.129,0.199,0.925,-6.958,10.193,-2.441
0.108,0.188,0.936,-7.446,2.808,-8.911
0.098,0.173,0.940,-5.066,-0.488,-10.864
0.096,0.166,0.941,-3.052,-1.404,-10.376
0.104,0.160,0.940,-2.869,-2.441,-9.216
0.118,0.157,0.952,-3.601,-4.639,-7.568
0.104,0.150,0.967,-4.272,-8.423,-5.920
0.079,0.144,0.991,-4.883,-11.658,-4.456
0.044,0.137,1.006,-4.944,-12.939,-2.930
0.023,0.140,1.019,-3.967,-11.597,-1.953
0.016,0.130,1.008,-3.174,-8.728,-2.319
0.012,0.127,1.006,-2.625,-6.836,-2.747
0.002,0.119,1.012,-2.380,-5.310,-3.601
-0.005,0.113,1.020,-1.160,-2.625,-3.723
-0.007,0.104,1.015,0.366,1.282,-3.601
-0.000,0.092,0.998,0.977,4.517,-4.150
0.004,0.087,0.993,0.000,5.310,-4.700
0.005,0.079,0.990,-0.671,4.700,-4.822
0.006,0.075,0.988,-1.099,3.479,-5.066
-0.003,0.073,0.998,-1.587,1.709,-5.310
-0.016,0.068,0.997,-2.075,0.000,-5.432
-0.022,0.068,0.995,-2.441,-1.099,-5.493
-0.039,0.066,0.996,-3.296,-2.930,-6.653
-0.063,0.065,1.010,-4.211,-4.395,-7.996
-0.084,0.064,1.027,-5.005,-5.310,-9.155
-0.101,0.060,1.033,-4.822,-5.005,-10.376
-0.114,0.056,1.042,-4.883,-3.967,-11.597
-0.144,0.049,1.057,-4.333,-3.235,-12.695

1.461,0.746,0.839,-19.714,-0.793,-44.495
1.771,0.713,0.872,-25.269,-14.954,-41.443
2.019,0.698,0.947,-31.128,-28.687,-27.222
2.180,0.634,1.037,-34.668,-36.255,-9.277
2.157,0.482,1.117,-37.720,-35.400,7.446
2.063,0.309,1.129,-37.231,-25.757,30.090
1.829,0.110,1.078,-38.757,-15.747,57.922
1.584,0.000,1.004,-48.523,-8.484,86.548
1.357,-0.089,0.853,-46.692,-0.244,110.840
0.998,-0.154,0.739,-42.358,1.770,124.268
0.634,-0.142,0.743,-44.739,-3.357,131.836
0.185,-0.332,0.762,-26.978,-3.845,135.071
-0.246,-0.394,0.739,-4.272,0.977,140.320
-0.721,-0.404,0.691,14.465,-2.869,163.330
-1.154,-0.427,0.713,27.588,-5.798,173.584
-1.488,-0.413,0.828,34.119,-7.690,173.401
-1.753,-0.434,0.971,34.729,-9.155,164.978
-1.951,-0.408,1.139,26.245,-10.559,148.865
-2.032,-0.354,1.249,14.648,-11.719,125.671
-2.002,-0.347,1.268,5.615,-13.000,97.168
-2.324,-0.428,1.617,-0.122,-11.414,65.979
-1.827,-0.383,1.398,77.576,58.777,92.407
-1.670,-0.472,1.074,112.488,69.763,71.106
-1.741,-0.469,1.113,6.287,3.906,-16.724
-1.714,-0.433,1.192,-46.326,-33.325,-56.824
-1.641,-0.408,1.094,-40.833,-32.959,-67.993
-1.525,-0.373,0.983,-35.645,-27.466,-78.613
-1.376,-0.354,0.903,-41.504,-28.503,-95.764
-1.240,-0.367,0.860,-51.880,-38.147,-115.601
-1.161,-0.387,0.883,-60.242,-50.171,-132.629
-1.097,-0.415,0.911,-64.026,-54.199,-143.799
-1.043,-0.362,1.009,-66.284,-47.485,-148.071
-1.007,-0.337,1.083,-53.955,-35.583,-147.461
-0.930,-0.308,1.086,-33.569,-19.104,-143.738
-0.785,-0.285,1.049,-19.897,-7.019,-145.081
-0.609,-0.249,0.980,-10.254,2.930,-147.888
-0.437,-0.188,0.930,-3.906,17.029,-145.264
-0.141,-0.215,0.801,9.216,28.748,-133.484
0.076,-0.104,0.865,8.728,18.921,-119.385
0.312,0.021,0.909,4.639,14.465,-116.211
0.537,0.063,0.957,9.705,15.747,-128.723
0.782,0.118,0.996,17.883,22.583,-127.869
1.027,0.237,1.052,22.034,27.222,-120.544
1.284,0.359,1.052,20.142,23.865,-111.511
1.565,0.439,0.975,13.367,10.437,-108.276
1.672,0.440,0.914,1.648,-12.817,-116.089
1.784,0.470,0.924,-5.432,-35.400,-117.432
1.825,0.495,0.928,-9.399,-50.659,-108.826
1.812,0.514,0.935,-12.939,-57.251,-90.271
1.776,0.545,0.957,-14.648,-54.321,-63.965
1.702,0.538,0.944,-14.771,-44.739,-37.537
1.606,0.521,0.903,-13.672,-33.203,-12.695
1.474,0.513,0.860,-13.733,-26.062,7.019
1.307,0.485,0.828,-13.428,-24.963,21.790
1.112,0.450,0.814,-8.606,-28.503,30.945
0.945,0.448,0.866,4.028,-39.063,27.222
0.778,0.385,0.871,33.081,-54.382,13.306
0.597,0.277,0.810,54.871,-61.401,1.343
0.447,0.196,0.768,51.331,-54.016,-7.629
0.336,0.120,0.777,34.119,-36.804,-11.230
0.244,0.066,0.870,13.306,-18.799,-6.836
0.147,0.018,0.920,1.038,-0.732,8.728
0.051,-0.025,0.968,-6.226,17.639,29.541
-0.099,-0.026,1.054,-16.113,34.790,50.842
-0.252,0.011,1.164,-19.470,48.035,69.153
-0.362,-0.023,1.170,-1.892,45.288,90.027
-0.481,-0.025,1.134,16.296,44.739,98.450
-0.522,-0.007,1.126,20.325,48.401,101.501
-0.579,0.019,1.075,29.297,49.194,98.083
-0.606,0.016,1.028,29.419,43.396,93.323
-0.598,0.021,1.006,21.790,34.241,86.670
-0.610,0.041,0.983,18.738,25.024,76.599
-0.614,0.056,0.957,16.785,15.625,63.599
-0.610,0.081,0.922,14.404,6.714,49.622
-0.600,0.087,0.915,5.371,-2.808,34.607
-0.563,0.086,0.953,-5.371,-10.498,21.484
-0.502,0.067,0.983,-8.423,-14.465,12.512
-0.444,0.067,1.003,-5.249,-13.855,7.202
-0.386,0.067,1.011,-1.099,-10.742,4.456
-0.360,0.072,1.025,2.319,-7.446,3.967
-0.366,0.098,1.049,4.333,-4.272,5.005
-0.393,0.138,1.069,5.859,-1.221,5.432
-0.392,0.161,1.065,6.958,2.258,3.845
-0.398,0.171,1.042,7.446,4.456,-0.061
-0.350,0.187,1.037,1.038,6.042,-4.883
-0.248,0.154,1.022,-8.789,9.277,-10.498
-0.183,0.200,1.011,4.883,-3.662,-10.193
-0.129,0.181,1.034,-1.282,-7.507,-15.381
-0.080,0.165,1.020,-2.380,-3.601,-16.418
-0.027,0.208,1.005,-2.075,3.357,-13.367
0.010,0.211,0.984,-3.784,11.902,-15.808
0.060,0.177,0.937,-3.296,15.198,-18.738
0.074,0.177,0.960,0.610,9.949,-14.587
0.059,0.193,0.964,4.211,5.920,-10.437
0.029,0.191,0.966,6.104,4.822,-7.996
-0.001,0.207,0.971,5.066,4.272,-7.385
-0.003,0.186,0.976,4.761,3.357,-8.057
0.004,0.160,0.969,6.714,1.831,-7.751
0.013,0.174,0.977,8.423,-0.610,-4.333
-0.005,0.182,0.995,8.057,-1.770,-3.601
-0.021,0.172,1.001,7.141,-2.380,-3.723
-0.017,0.167,1.009,6.897,-1.526,-3.174
-0.052,0.160,1.009,8.911,-0.122,-2.075
-0.037,0.156,1.000,7.935,2.502,0.916
-0.034,0.152,0.993,4.456,4.089,2.136
-0.031,0.145,1.005,3.357,4.150,1.282
-0.030,0.139,1.019,4.150,3.784,-0.061
-0.033,0.136,1.006,7.446,3.906,-0.549
-0.027,0.125,0.992,9.888,4.211,-1.221
-0.038,0.118,0.975,13.916,3.784,-2.808
-0.039,0.117,0.965,14.099,2.075,-3.967
-0.033,0.105,0.963,11.719,-0.244,-4.883
-0.034,0.099,0.979,10.132,-2.563,-5.981
-0.031,0.094,0.987,7.568,-3.662,-6.165
-0.032,0.091,0.992,6.897,-4.028,-6.104
-0.030,0.091,0.991,8.911,-3.662,-6.165
-0.054,0.090,1.002,9.644,-2.869,-5.859
-0.067,0.087,1.000,9.399,-0.793,-4.883
-0.065,0.084,0.994,7.263,1.892,-3.174

1.763,0.459,1.022,-10.315,-39.307,-52.246
2.161,0.300,1.247,-24.048,-69.641,-47.852
2.411,0.074,1.474,-41.077,-83.374,-31.006
2.414,-0.042,1.614,-46.753,-74.951,1.099
2.174,-0.153,1.567,-41.687,-48.096,36.926
1.837,-0.250,1.358,-32.837,-12.695,71.533
1.483,-0.291,1.114,-24.719,18.921,107.422
1.156,-0.270,0.886,-12.268,40.039,141.846
0.807,-0.333,0.700,6.653,43.640,166.748
0.402,-0.300,0.616,14.832,32.959,183.167
-0.042,-0.273,0.635,16.785,18.677,199.280
-0.520,-0.227,0.678,11.414,10.742,207.764
-1.012,-0.121,0.708,0.977,10.986,210.937
-1.344,-0.020,0.704,-6.287,21.301,209.473
-1.574,-0.005,0.658,-7.935,34.119,196.289
-1.732,-0.036,0.673,-0.610,45.166,180.054
-1.827,-0.059,0.749,2.380,57.190,166.016
-1.880,-0.110,0.786,4.944,65.979,146.973
-1.887,-0.174,0.854,8.423,64.819,123.901
-1.774,-0.258,0.948,6.165,50.964,93.933
-2.131,-0.446,1.129,3.967,23.071,54.993
-1.746,-0.362,1.198,0.732,25.513,66.833
-1.546,-0.482,1.172,8.240,17.761,50.476
-1.692,-0.534,1.210,-0.916,-16.052,-20.386
-1.643,-0.513,1.255,-16.357,-27.405,-57.739
-1.610,-0.481,1.220,-16.052,-24.963,-76.904
-1.583,-0.429,1.151,-11.292,-23.499,-94.177
-1.545,-0.398,1.090,-10.620,-23.071,-113.159
-1.518,-0.417,1.086,-9.888,-21.667,-133.362
-1.445,-0.427,1.109,-9.155,-18.066,-147.888
-1.357,-0.444,1.116,-7.751,-14.709,-163.391
-1.262,-0.482,1.100,-7.263,-13.123,-178.833
-1.087,-0.500,1.078,-7.690,-12.207,-187.256
-0.856,-0.485,1.026,-7.202,-11.169,-190.063
-0.619,-0.446,0.938,-4.883,-11.536,-193.298
-0.349,-0.358,0.884,-4.822,-12.695,-194.702
0.097,-0.264,0.754,0.061,-9.155,-191.650
0.406,-0.170,0.779,3.052,-17.944,-186.707
0.760,-0.005,0.915,-10.315,-28.320,-180.481
1.089,0.003,1.001,-11.353,-29.175,-186.646
1.435,0.047,1.099,-16.174,-30.823,-181.458
1.764,0.109,1.136,-24.536,-35.583,-165.466
2.091,0.178,1.148,-31.738,-45.044,-148.987
2.331,0.228,1.193,-34.668,-57.068,-137.695
2.376,0.241,1.214,-31.372,-61.890,-125.732
2.352,0.267,1.164,-25.146,-54.321,-96.558
2.226,0.301,1.079,-21.851,-39.673,-58.960
2.040,0.333,1.001,-20.081,-23.987,-23.193
1.846,0.348,0.916,-15.137,-10.559,8.057
1.694,0.378,0.842,-9.460,-4.578,30.029
1.475,0.361,0.812,-7.202,-9.094,37.903
1.284,0.327,0.785,-3.113,-16.846,43.335
1.093,0.318,0.794,3.357,-29.602,41.504
0.914,0.262,0.812,13.855,-47.974,29.480
0.718,0.167,0.804,30.579,-59.875,20.142
0.565,0.074,0.796,36.377,-55.237,17.090
0.445,-0.014,0.795,31.006,-38.940,24.475
0.328,-0.098,0.805,25.452,-18.127,36.865
0.199,-0.149,0.806,17.883,5.371,52.429
0.082,-0.190,0.848,7.141,32.410,65.979
-0.067,-0.207,0.935,-10.498,57.617,84.717
-0.286,-0.165,1.047,-33.997,78.491,109.314
-0.485,-0.078,1.139,-45.410,97.168,127.808
-0.695,0.007,1.242,-44.617,100.098,143.005
-0.911,0.008,1.181,-12.817,89.966,155.823
-1.055,0.096,1.118,4.395,88.074,158.020
-1.169,0.138,1.070,10.132,84.412,147.644
-1.183,0.164,1.015,15.137,78.674,134.644
-1.162,0.159,0.958,18.555,63.477,113.708
-1.072,0.156,0.915,13.977,42.908,86.792
-0.921,0.135,0.902,5.127,22.278,55.908
-0.772,0.115,0.941,-3.723,3.784,27.466
-0.667,0.085,0.984,-5.981,-7.812,7.507
-0.548,0.064,1.008,-2.930,-12.695,-0.244
-0.431,0.045,1.031,1.038,-13.977,-2.319
-0.325,0.060,1.076,4.639,-14.526,-3.967
-0.323,0.069,1.132,7.629,-16.357,-9.766
-0.316,0.094,1.168,9.460,-14.465,-12.085
-0.294,0.103,1.161,9.460,-9.705,-10.681
-0.260,0.122,1.149,7.935,-4.517,-7.019
-0.262,0.150,1.141,4.639,-1.099,-4.822
-0.301,0.128,1.126,-2.075,1.953,-7.996
-0.120,0.156,1.047,-7.446,9.888,-8.728
-0.070,0.221,0.995,9.705,-4.089,-4.395
-0.021,0.218,1.008,1.770,-5.127,-13.367
0.001,0.167,0.996,1.709,-3.906,-18.372
0.047,0.209,0.985,2.747,-2.197,-14.954
0.087,0.224,0.951,0.916,4.639,-17.151
0.106,0.209,0.928,-0.488,6.836,-18.555
0.128,0.187,0.937,-3.906,4.944,-16.846
0.140,0.188,0.917,-2.747,2.930,-13.184
0.129,0.194,0.910,-1.526,2.930,-8.972
0.107,0.201,0.912,-0.488,1.587,-4.333
0.083,0.203,0.910,2.014,-0.549,-0.916
0.047,0.219,0.943,2.991,-2.502,2.136
0.017,0.223,0.980,3.357,-3.113,3.113
-0.007,0.224,1.009,5.249,-2.991,3.479
-0.023,0.226,1.030,7.080,-2.319,3.174
-0.036,0.217,1.045,4.517,0.244,0.671
-0.037,0.186,1.047,1.343,3.357,-2.258
-0.031,0.161,1.028,2.625,5.432,-3.113
-0.019,0.161,1.021,3.723,5.127,-2.808
-0.015,0.158,1.021,1.648,4.089,-3.296
-0.012,0.139,1.009,-0.549,3.113,-4.517
-0.013,0.122,0.995,-1.221,1.343,-4.883
-0.012,0.109,0.967,-0.061,-0.977,-3.662
-0.011,0.113,0.966,-0.366,-4.089,-2.380
-0.010,0.121,0.960,-2.563,-7.263,-1.709
-0.004,0.109,0.949,-3.784,-9.766,-1.404
-0.005,0.106,0.944,-4.272,-11.536,-0.793
-0.009,0.108,0.944,-4.395,-12.329,-0.061
-0.011,0.110,0.941,-4.333,-11.902,0.793
-0.001,0.117,0.936,-5.188,-10.742,0.793
-0.004,0.115,0.928,-6.531,-8.606,-1.160
-0.014,0.103,0.913,-7.080,-5.554,-2.075
-0.003,0.107,0.899,-5.371,-3.479,-0.610
0.002,0.110,0.891,-4.089,-1.892,2.136
0.001,0.121,0.896,-3.906,-0.488,5.066
-0.022,0.128,0.908,-4.639,-0.122,7.446

-1.351,0.323,1.003,-21.057,4.639,-43.884
-1.428,0.314,1.017,-19.165,4.089,-59.448
-1.447,0.246,1.042,-16.663,4.333,-79.468
-1.362,0.186,1.058,-16.235,5.432,-98.755
-1.216,0.091,1.074,-14.893,4.761,-115.906
-1.047,-0.015,1.068,-18.921,8.423,-131.653
-0.884,-0.126,1.056,-17.822,13.184,-142.883
-0.701,-0.162,1.088,-18.188,18.555,-145.203
-0.514,-0.177,1.091,-19.409,25.085,-145.874
-0.272,-0.177,1.026,-19.287,32.959,-145.813
0.011,-0.092,0.953,-16.174,36.865,-146.484
0.304,-0.021,0.902,-21.179,33.508,-152.100
0.717,0.025,0.872,-30.762,24.780,-160.400
1.117,0.035,0.815,-40.100,14.709,-164.429
1.472,-0.005,0.813,-51.514,-0.549,-166.016
1.913,-0.041,0.919,-71.045,-17.578,-160.095
2.365,-0.072,1.070,-85.327,-30.945,-150.208
2.693,-0.120,1.178,-93.018,-39.490,-136.169
2.895,-0.152,1.212,-93.018,-42.114,-110.474
2.959,-0.205,1.110,-82.764,-39.063,-72.021
2.870,-0.216,0.962,-65.002,-32.593,-23.926
2.734,-0.190,0.796,-49.255,-25.635,21.790
2.529,-0.181,0.697,-32.166,-23.376,54.260
2.236,-0.210,0.651,-10.071,-24.231,74.097
1.907,-0.246,0.663,9.949,-23.804,93.567
1.573,-0.273,0.673,33.264,-26.733,112.976
1.241,-0.335,0.671,51.880,-31.799,119.995
0.913,-0.363,0.694,51.758,-29.114,117.554
0.632,-0.405,0.713,53.284,-20.630,120.483
0.353,-0.381,0.748,57.983,-13.123,130.554
-0.018,-0.353,0.832,58.105,-5.249,143.433
-0.433,-0.324,0.927,46.875,10.986,156.372
-0.851,-0.244,1.045,32.959,36.499,170.349
-1.257,-0.146,1.178,19.714,62.134,186.646
-1.605,-0.014,1.277,2.441,83.923,201.721
-1.804,0.122,1.285,-19.348,106.018,206.909
-1.895,0.226,1.271,-34.546,119.446,203.979
-1.939,0.251,1.207,-22.583,101.318,197.266
-1.966,0.238,1.099,8.850,71.411,188.538
-2.016,0.246,1.067,15.686,46.997,169.556
-2.113,0.273,1.061,18.738,22.156,140.137
-2.239,0.310,1.036,19.226,-0.244,101.807
-2.327,0.368,1.011,11.780,-18.616,57.373
-2.313,0.394,0.973,2.686,-31.189,11.719
-2.125,0.375,0.910,-2.808,-36.316,-33.752
-1.805,0.277,0.858,-5.432,-36.011,-76.111
-1.488,0.179,0.847,-6.958,-35.278,-107.910
-1.242,0.067,0.843,0.366,-36.499,-131.836
-1.090,0.031,0.886,6.226,-28.809,-142.822
-0.691,0.029,0.828,18.738,-5.188,-134.949
-0.513,-0.010,0.815,18.127,1.770,-164.062
-0.223,-0.089,0.781,17.029,-1.953,-182.983
0.038,-0.125,0.792,-0.244,-5.005,-185.364
0.322,-0.186,0.776,-11.597,-12.817,-174.133
0.566,-0.069,0.951,-31.799,-39.001,-153.442
0.778,-0.003,1.139,-57.190,-51.758,-138.245
0.953,-0.027,1.235,-54.626,-46.204,-135.437
1.049,-0.012,1.252,-42.969,-39.734,-127.563
1.150,0.023,1.253,-37.109,-31.433,-106.628
1.196,0.086,1.254,-30.884,-25.269,-87.402
1.177,0.141,1.236,-19.714,-22.583,-76.111
1.140,0.151,1.203,-8.911,-17.639,-65.674
1.080,0.177,1.162,-1.648,-10.193,-49.011
0.993,0.213,1.121,4.944,-3.479,-33.447
0.908,0.242,1.083,7.446,1.343,-20.264
0.831,0.260,1.048,6.897,4.944,-8.972
0.753,0.262,1.019,6.104,6.104,0.488
0.671,0.273,0.991,5.798,6.042,10.193
0.574,0.271,0.962,6.958,5.005,19.592
0.457,0.267,0.943,7.202,4.028,26.855
0.342,0.259,0.922,6.409,3.296,31.372
0.238,0.248,0.900,6.287,2.258,34.851
0.151,0.241,0.906,5.249,1.038,36.987
0.072,0.241,0.921,3.418,1.038,38.208
0.012,0.227,0.920,1.465,2.686,39.307
-0.020,0.218,0.913,-0.671,5.005,40.405
-0.058,0.212,0.912,-3.052,6.775,40.405
-0.109,0.213,0.913,-4.639,8.179,39.917
-0.159,0.218,0.910,-3.906,10.193,41.260
-0.198,0.220,0.901,-3.174,13.245,43.396
-0.219,0.219,0.899,-2.014,15.137,43.579
-0.247,0.241,0.901,0.916,15.442,42.175
-0.256,0.245,0.898,3.662,13.794,37.842
-0.251,0.244,0.898,2.380,11.108,31.006
-0.222,0.234,0.909,1.221,7.263,23.376
-0.181,0.226,0.929,-0.671,2.747,16.235
-0.148,0.229,0.956,-2.075,-1.465,9.399
-0.124,0.224,0.958,-1.648,-2.991,5.127
-0.110,0.221,0.965,-0.732,-3.296,2.869
-0.097,0.229,0.979,-0.366,-3.174,1.099
-0.090,0.243,0.995,1.282,-2.075,-0.854
-0.083,0.243,0.986,3.479,0.793,-2.502
-0.075,0.246,0.969,5.127,3.723,-2.930
-0.057,0.253,0.953,6.470,5.920,-2.808
-0.034,0.252,0.947,6.409,6.836,-3.357
-0.018,0.257,0.951,5.920,7.568,-3.967
0.002,0.253,0.949,6.287,7.812,-3.967
0.009,0.256,0.956,5.554,7.507,-3.174
0.019,0.251,0.970,5.676,7.202,-2.258
0.013,0.259,0.974,8.179,7.751,-0.977
0.012,0.263,0.979,8.667,7.568,0.183
0.005,0.271,0.985,4.517,5.920,0.671
0.007,0.270,0.986,3.113,4.822,0.977
0.013,0.281,0.991,1.465,3.784,1.160
0.022,0.280,0.995,-2.380,2.441,0.732
0.035,0.265,0.995,-5.249,1.770,-0.061
0.038,0.262,0.991,-5.066,1.099,0.793
0.038,0.257,0.996,-5.920,0.122,2.991
0.028,0.265,0.998,-5.493,-1.038,4.822
0.011,0.258,1.003,-7.019,-0.549,6.165
0.008,0.275,0.998,-4.272,-1.404,9.033
-0.004,0.278,0.998,-3.235,-3.418,7.812
-0.035,0.272,1.002,-3.296,-5.371,3.723
-0.060,0.273,1.008,-2.380,-5.554,1.465
-0.087,0.267,1.011,-1.282,-4.028,-0.244
-0.112,0.266,1.009,-1.038,-1.282,-1.892
-0.139,0.260,0.999,-0.916,2.563,-3.662
-0.181,0.267,0.985,-0.854,4.761,-5.005
-0.185,0.255,0.977,-4.211,6.104,-5.615

2.035,-0.005,1.237,-48.218,-18.616,-100.830
2.365,-0.216,1.255,-56.458,-29.785,-80.505
2.542,-0.364,1.168,-60.486,-31.067,-34.790
2.494,-0.463,1.085,-59.143,-22.705,22.644
2.205,-0.525,0.913,-32.410,-8.911,73.181
1.804,-0.563,0.726,-7.019,2.075,118.774
1.357,-0.576,0.592,5.676,6.470,165.100
0.875,-0.584,0.537,22.156,0.000,207.214
0.300,-0.504,0.607,38.208,-13.611,233.887
-0.242,-0.435,0.634,52.307,-29.053,247.375
-0.811,-0.299,0.676,60.852,-44.495,256.042
-1.372,-0.148,0.710,62.622,-58.716,260.681
-1.892,0.027,0.784,52.856,-64.331,260.742
-2.269,0.195,0.826,39.917,-59.082,257.141
-2.558,0.339,0.815,35.706,-44.922,248.840
-2.763,0.451,0.850,35.156,-29.602,225.525
-2.806,0.450,0.881,23.193,-14.343,183.960
-2.772,0.411,0.877,8.057,-0.061,139.832
-2.644,0.339,0.885,-5.981,7.263,101.990
-2.546,0.259,0.857,-25.269,13.062,70.374
-2.418,0.196,0.852,-34.912,18.738,36.987
-2.215,0.138,0.866,-37.598,26.978,-1.404
-1.986,0.022,0.868,-40.833,41.199,-45.471
-1.764,-0.051,0.887,-49.561,59.021,-91.553
-1.544,-0.119,0.933,-60.913,75.806,-128.601
-1.347,-0.165,0.973,-69.885,91.064,-160.950
-1.115,-0.129,1.088,-85.144,107.971,-183.228
-0.833,-0.088,1.104,-70.007,107.117,-201.477
-0.767,-0.242,1.059,0.549,70.374,-209.106
-0.371,-0.264,0.768,15.808,76.843,-211.670
-0.117,-0.283,0.881,18.005,36.255,-230.164
0.227,-0.113,1.071,-0.793,5.371,-228.516
0.462,-0.151,1.161,-2.930,10.620,-245.178
0.689,-0.234,1.130,-5.981,19.531,-250.183
0.959,-0.213,1.127,-10.193,14.099,-234.680
1.205,-0.148,1.143,-20.020,-0.244,-218.872
1.448,-0.119,1.154,-35.400,-14.832,-218.933
1.639,-0.124,1.167,-51.208,-30.640,-218.384
1.790,-0.110,1.134,-63.354,-42.542,-207.703
1.952,-0.131,1.028,-73.242,-46.936,-197.083
2.152,-0.136,0.879,-77.209,-46.631,-180.176
2.365,-0.134,0.722,-79.041,-47.791,-154.053
2.472,-0.149,0.582,-78.186,-53.284,-122.131
2.504,-0.107,0.527,-65.186,-62.988,-86.792
2.427,-0.043,0.552,-40.283,-76.172,-50.415
2.213,-0.058,0.578,-4.150,-89.050,-14.526
1.912,-0.073,0.601,39.001,-100.708,24.658
1.576,-0.101,0.616,65.674,-108.521,53.833
1.326,-0.171,0.615,70.557,-116.333,57.129
1.120,-0.248,0.657,64.575,-117.188,48.523
0.917,-0.327,0.695,63.049,-108.887,43.884
0.742,-0.405,0.708,63.538,-95.093,50.903
0.578,-0.359,0.730,56.458,-73.730,70.190
0.327,-0.418,0.786,51.270,-47.852,88.928
0.035,-0.399,0.846,45.410,-20.020,106.445
-0.308,-0.275,0.932,21.729,9.949,128.845
-0.698,-0.161,1.044,-9.888,38.391,148.376
-1.061,0.021,1.141,-36.133,63.171,164.307
-1.343,0.246,1.206,-43.579,84.595,186.462
-1.510,0.383,1.193,-38.574,99.487,199.341
-1.460,0.502,1.159,-31.006,107.666,197.021
-1.344,0.479,1.103,-15.320,92.224,185.059
-1.212,0.470,1.070,-8.057,72.815,173.096
-1.120,0.474,1.056,-18.799,60.852,161.255
-1.067,0.492,1.028,-18.616,50.415,143.921
-1.011,0.488,0.999,-12.024,38.452,117.981
-0.993,0.505,0.974,-5.005,27.039,90.149
-0.934,0.517,0.965,3.723,16.113,60.181
-0.896,0.499,0.984,9.155,7.812,32.898
-0.842,0.496,1.002,12.695,5.188,18.372
-0.776,0.496,1.038,15.625,3.357,5.920
-0.672,0.484,1.070,15.564,1.160,-7.507
-0.540,0.427,1.081,13.672,-0.916,-22.766
-0.396,0.362,1.078,11.353,-1.953,-36.316
-0.250,0.310,1.077,9.949,-0.549,-46.082
-0.120,0.269,1.066,7.874,3.479,-52.734
-0.008,0.258,1.065,4.456,8.667,-56.824
0.100,0.191,1.030,-1.587,13.794,-60.547
0.154,0.084,0.957,-5.493,15.320,-60.730
0.250,0.075,0.863,-15.259,18.311,-42.908
0.385,0.223,0.873,-5.249,11.658,-18.127
0.279,0.232,0.875,-12.695,4.089,-22.644
0.244,0.185,0.842,-19.287,7.202,-22.644
0.279,0.243,0.851,-17.029,3.845,-14.832
0.268,0.257,0.873,-14.160,-6.958,-14.282
0.257,0.224,0.880,-11.780,-21.240,-20.081
0.194,0.204,0.928,-11.719,-32.837,-20.447
0.164,0.262,0.976,-7.874,-33.569,-7.141
0.119,0.280,0.966,-5.310,-21.729,-1.892
0.077,0.271,0.941,-5.737,-8.423,-4.028
0.042,0.275,0.932,-1.953,-1.648,-2.625
0.014,0.289,0.929,2.075,2.075,0.183
-0.009,0.288,0.929,1.099,6.836,0.427
-0.021,0.286,0.920,0.793,8.789,0.244
-0.032,0.288,0.918,1.099,7.446,1.282
-0.037,0.286,0.922,0.122,4.944,2.075
-0.048,0.285,0.938,-0.427,1.953,2.136
-0.068,0.286,0.963,-1.038,-0.916,1.343
-0.084,0.287,0.983,-2.136,-2.197,0.061
-0.095,0.283,0.988,-2.869,-2.319,-1.709
-0.098,0.286,0.993,-3.662,-2.441,-3.479
-0.103,0.285,0.994,-4.761,-3.113,-6.531
-0.084,0.277,0.982,-5.066,-3.479,-9.399
-0.060,0.260,0.967,-4.883,-4.211,-11.475
-0.042,0.259,0.962,-5.005,-5.432,-12.451
-0.038,0.263,0.959,-4.028,-6.287,-12.878
-0.033,0.265,0.949,-2.136,-6.409,-13.306
-0.031,0.265,0.939,-1.099,-6.348,-13.855
-0.023,0.262,0.935,-0.305,-5.859,-14.099
-0.015,0.256,0.936,0.916,-5.371,-13.977
-0.024,0.254,0.943,3.235,-4.578,-13.428
-0.054,0.266,0.951,8.728,-3.174,-12.878
-0.089,0.284,0.947,13.428,-1.343,-12.878
-0.116,0.283,0.937,15.259,0.305,-13.550
-0.128,0.283,0.937,16.785,2.380,-14.954
-0.141,0.287,0.939,19.165,4.456,-16.113
-0.145,0.280,0.942,20.386,6.653,-16.663
-0.177,0.300,0.948,22.766,8.850,-17.151
-0.200,0.299,0.938,24.292,10.803,-17.700

2.548,-0.424,0.518,-39.063,21.545,-100.769
3.000,-0.757,0.404,-57.678,-11.658,-89.783
3.322,-1.066,0.333,-61.401,-39.124,-47.546
3.233,-1.225,0.390,-42.786,-57.617,27.344
2.776,-1.321,0.643,-7.629,-62.927,101.196
2.090,-1.426,0.773,31.799,-49.805,167.603
1.383,-1.491,0.803,50.903,-32.349,234.924
0.727,-1.313,0.951,56.396,-24.536,290.466
0.134,-1.134,1.126,52.917,-28.625,311.340
-0.359,-0.974,1.182,31.616,-34.668,316.040
-0.952,-0.699,1.269,5.249,-42.297,325.928
-1.659,-0.371,1.449,-14.832,-52.979,333.618
-2.262,0.052,1.510,-41.077,-49.072,332.458
-2.633,0.349,1.407,-58.411,-31.189,315.613
-2.979,0.631,1.194,-59.082,-9.033,284.912
-3.163,0.831,1.099,-59.021,2.686,237.366
-3.180,0.914,1.100,-68.115,5.920,183.594
-3.089,0.874,1.056,-66.223,8.057,127.441
-2.904,0.781,0.958,-53.589,6.775,73.486
-2.629,0.662,0.847,-37.598,-2.930,19.775
-2.661,0.551,0.862,-26.733,-11.414,-22.888
-2.238,0.507,0.766,-29.297,12.695,-5.554
-1.924,0.290,0.705,1.892,-15.686,-92.102
-1.763,0.138,0.760,2.197,-45.349,-162.720
-1.617,-0.002,0.780,8.667,-56.580,-184.875
-1.348,-0.066,0.772,2.808,-24.353,-193.054
-1.114,-0.143,0.777,-10.498,6.165,-212.830
-0.910,-0.185,0.849,-24.597,15.869,-235.718
-0.677,-0.280,0.854,-11.353,9.155,-243.713
-0.422,-0.309,0.842,12.207,4.761,-242.615
-0.236,-0.319,0.860,20.203,6.958,-238.342
0.154,-0.336,0.825,21.667,20.142,-234.680
0.451,-0.352,0.874,39.734,0.671,-236.877
0.734,-0.349,0.938,18.372,-6.409,-236.877
0.974,-0.417,0.989,1.343,-7.385,-231.995
1.276,-0.386,1.063,-15.686,-6.592,-202.393
1.649,-0.302,1.144,-26.489,-7.996,-173.279
1.970,-0.288,1.109,-34.241,-9.888,-159.424
2.288,-0.311,1.009,-38.391,-15.137,-151.733
2.474,-0.263,0.997,-39.917,-28.931,-149.475
2.573,-0.270,0.985,-41.992,-39.612,-144.043
2.593,-0.255,0.949,-41.321,-39.185,-112.610
2.453,-0.260,0.882,-26.245,-37.231,-70.374
2.227,-0.184,0.870,-6.653,-39.856,-32.776
1.953,-0.115,0.894,6.226,-41.504,4.578
1.701,-0.109,0.897,20.935,-42.847,35.889
1.503,-0.123,0.880,39.429,-49.133,64.819
1.282,-0.100,0.879,57.556,-59.631,86.792
1.094,-0.149,0.849,77.637,-73.059,89.539
0.951,-0.259,0.822,88.074,-80.566,75.928
0.778,-0.320,0.839,70.496,-69.336,70.313
0.651,-0.430,0.888,55.359,-51.758,73.547
0.463,-0.482,0.941,43.701,-38.025,89.539
0.248,-0.466,0.987,33.936,-23.743,118.896
0.026,-0.446,1.006,19.104,-4.211,153.992
-0.204,-0.391,1.025,-0.916,17.456,186.035
-0.477,-0.259,1.162,-16.296,31.494,217.773
-0.819,-0.153,1.210,-7.996,29.419,246.582
-1.198,0.027,1.232,1.953,30.457,259.094
-1.573,0.250,1.197,-7.385,39.063,260.437
-1.846,0.421,1.098,-12.390,45.349,243.591
-1.959,0.538,0.984,-12.695,46.936,217.590
-1.897,0.596,0.882,-13.062,42.786,186.096
-1.726,0.589,0.827,-17.395,34.363,153.381
-1.526,0.515,0.817,-22.339,22.461,121.399
-1.304,0.457,0.837,-26.245,9.155,86.487
-1.114,0.439,0.874,-29.480,-1.831,45.959
-0.937,0.398,0.890,-21.118,-10.986,5.493
-0.833,0.389,0.924,-11.780,-14.404,-16.907
-0.709,0.379,0.970,-1.648,-10.376,-27.893
-0.578,0.362,1.019,5.432,-2.380,-38.330
-0.417,0.292,1.033,9.583,7.751,-49.316
-0.233,0.236,1.045,11.719,14.954,-56.946
-0.086,0.180,1.038,12.207,18.005,-61.584
-0.021,0.089,1.017,8.850,17.822,-63.049
0.126,0.076,0.975,4.272,20.996,-50.415
0.317,0.206,1.021,11.414,8.667,-38.208
0.316,0.137,1.022,7.690,-3.296,-50.171
0.253,0.049,1.007,9.094,-12.878,-51.636
0.276,0.155,1.000,-0.977,-6.287,-30.701
0.285,0.215,0.968,-8.667,8.057,-22.278
0.281,0.193,0.909,-2.991,10.010,-21.545
0.311,0.164,0.880,-1.404,6.897,-17.883
0.321,0.171,0.855,0.854,3.540,-12.085
0.291,0.199,0.880,-2.014,-1.099,-6.104
0.243,0.205,0.907,-2.869,-4.944,-1.038
0.182,0.222,0.942,-1.099,-7.690,4.517
0.113,0.252,0.981,0.977,-9.277,9.277
0.054,0.273,0.990,2.686,-9.705,10.498
-0.007,0.265,0.994,4.028,-10.193,8.240
-0.061,0.251,1.001,5.066,-9.644,6.409
-0.095,0.251,1.003,4.089,-5.859,6.409
-0.110,0.248,1.000,0.977,-0.427,6.714
-0.112,0.239,0.992,-1.831,3.662,6.226
-0.112,0.228,0.990,-2.869,5.249,4.639
-0.103,0.218,0.989,-3.235,5.432,3.357
-0.099,0.210,0.991,-3.540,5.005,2.441
-0.080,0.204,0.990,-4.578,5.188,2.502
-0.058,0.198,0.983,-5.615,5.432,2.808
-0.046,0.191,0.970,-5.310,4.700,2.563
-0.030,0.189,0.961,-3.845,3.357,2.380
-0.016,0.184,0.957,-2.625,0.366,1.526
-0.010,0.175,0.956,-2.319,-2.808,0.305
0.004,0.170,0.957,-2.869,-4.272,0.122
0.017,0.169,0.958,-3.601,-4.456,0.122
0.029,0.161,0.954,-4.333,-3.906,0.671
0.042,0.158,0.942,-2.625,-3.113,2.319
0.055,0.162,0.937,-1.282,-2.075,4.700
0.066,0.171,0.950,-0.610,-0.122,6.836
0.079,0.150,0.955,0.305,3.052,8.850
0.086,0.143,0.943,3.601,6.104,12.939
0.081,0.161,0.921,6.287,7.751,18.799
0.073,0.170,0.923,7.507,7.385,25.024
0.053,0.135,0.913,9.583,6.470,31.555
0.033,0.078,0.880,10.803,3.967,41.138
-0.007,0.058,0.879,10.315,-0.244,55.115
-0.102,0.064,0.882,7.874,-6.226,70.740
-0.261,0.120,0.989,0.366,-13.245,83.374
-0.395,0.187,1.029,-6.592,-16.785,92.285

-1.409,0.492,1.021,-19.165,-32.471,56.641
-1.602,0.543,1.008,-19.897,-26.917,34.424
-1.722,0.544,0.995,-17.944,-22.156,1.892
-1.768,0.533,1.019,-20.203,-17.395,-35.706
-1.726,0.464,1.031,-21.179,-10.315,-76.599
-1.602,0.372,1.058,-21.301,-1.465,-117.615
-1.427,0.285,1.091,-22.522,9.766,-157.166
-1.245,0.189,1.106,-20.813,23.743,-193.604
-1.020,0.106,1.083,-17.700,41.748,-222.046
-0.810,0.063,1.023,-20.081,65.918,-242.798
-0.596,0.024,0.915,-26.917,95.154,-253.967
-0.331,-0.054,0.760,-31.189,120.605,-265.747
-0.055,-0.141,0.507,-43.152,135.803,-274.475
0.340,-0.221,0.609,-61.768,126.282,-281.372
0.889,-0.426,0.807,-72.021,105.408,-289.062
1.455,-0.667,0.935,-68.726,87.830,-299.500
1.879,-0.859,1.048,-82.825,64.636,-307.678
2.231,-0.938,1.295,-101.563,32.471,-312.317
2.559,-0.991,1.341,-98.938,7.690,-306.030
2.736,-1.059,1.136,-94.116,-1.404,-275.391
2.887,-1.053,0.854,-98.694,-6.775,-228.638
3.020,-0.978,0.632,-103.638,-18.127,-165.100
3.005,-0.891,0.483,-92.041,-35.767,-102.295
2.825,-0.785,0.376,-69.092,-51.208,-42.175
2.551,-0.735,0.294,-36.560,-62.378,19.653
2.228,-0.704,0.317,-1.526,-72.205,79.956
1.895,-0.741,0.365,30.579,-80.872,132.996
1.544,-0.737,0.422,52.917,-81.726,170.471
1.146,-0.748,0.493,65.979,-72.571,189.270
0.813,-0.820,0.559,79.346,-60.181,192.078
0.517,-0.836,0.685,80.505,-46.204,187.866
0.189,-0.927,0.747,78.003,-29.785,194.702
-0.210,-0.958,0.851,87.708,-15.137,226.868
-0.761,-0.751,1.152,80.750,-4.089,264.526
-1.422,-0.538,1.359,50.903,-5.310,331.726
-1.888,-0.239,1.348,47.607,-8.789,412.415
-2.248,0.221,1.371,19.104,2.258,419.067
-2.513,0.559,1.159,4.822,12.390,398.621
-2.498,0.665,0.914,9.827,10.986,362.976
-2.268,0.658,0.826,1.038,1.831,321.411
-2.098,0.581,0.870,-14.954,-9.583,283.875
-2.093,0.555,0.923,-22.461,-24.292,250.977
-2.159,0.622,0.928,-20.813,-34.058,219.421
-2.265,0.743,0.939,-14.587,-38.330,180.237
-2.391,0.892,0.960,-11.169,-39.124,126.953
-2.443,0.939,0.907,-5.798,-32.288,64.514
-2.293,0.874,0.817,7.263,-20.752,-3.906
-2.005,0.667,0.745,18.860,-4.456,-69.885
-1.698,0.474,0.738,14.404,15.137,-128.052
-1.358,0.357,0.785,6.531,29.602,-175.537
-1.131,0.183,0.803,11.353,32.532,-215.759
-0.898,0.044,0.861,14.343,37.292,-228.821
-0.562,0.146,0.844,11.108,60.852,-209.656
-0.417,0.078,0.864,7.202,73.242,-234.802
0.004,-0.173,0.774,9.094,79.102,-253.113
0.461,-0.218,0.815,37.048,40.588,-257.446
0.849,-0.326,0.901,30.823,20.508,-268.982
1.264,-0.532,0.992,21.912,3.418,-277.954
1.646,-0.657,1.163,6.531,-15.076,-261.292
1.922,-0.681,1.303,-13.123,-23.499,-223.450
2.071,-0.677,1.377,-20.325,-22.827,-178.650
2.078,-0.625,1.333,-14.893,-19.348,-126.038
1.919,-0.504,1.203,-13.428,-12.207,-67.566
1.633,-0.351,1.057,-12.817,-3.601,-12.695
1.295,-0.166,0.966,-8.423,0.671,30.334
0.967,-0.008,0.919,-5.737,-1.526,58.228
0.670,0.104,0.903,-4.150,-7.935,72.449
0.404,0.218,0.918,-1.099,-16.541,79.651
0.149,0.311,0.970,7.263,-26.855,78.369
-0.054,0.349,0.969,29.907,-40.222,62.256
-0.187,0.359,0.915,47.424,-47.791,43.274
-0.270,0.362,0.865,42.236,-43.274,27.832
-0.344,0.355,0.859,23.743,-30.762,14.160
-0.375,0.343,0.871,7.568,-12.268,2.808
-0.379,0.373,0.925,-10.315,7.324,2.197
-0.384,0.354,0.964,-14.954,17.090,18.433
-0.406,0.348,0.937,-5.005,19.958,31.738
-0.368,0.366,0.911,-1.343,29.053,36.987
-0.319,0.345,0.890,-1.404,35.950,35.706
-0.255,0.307,0.893,-1.831,38.208,30.457
-0.179,0.264,0.909,-2.014,35.828,23.987
-0.109,0.209,0.922,-1.221,28.870,17.273
-0.041,0.175,0.937,-2.075,20.935,11.719
0.009,0.157,0.963,-2.930,11.047,7.690
-0.007,0.150,1.016,-3.784,-0.183,4.883
-0.053,0.181,1.076,-6.775,-7.690,5.676
-0.097,0.227,1.109,-9.277,-10.315,7.629
-0.123,0.266,1.096,-8.667,-8.301,7.385
-0.123,0.277,1.036,-6.958,-4.333,4.578
-0.096,0.287,0.985,-6.653,-1.526,0.488
-0.057,0.290,0.959,-6.042,0.244,-2.869
-0.021,0.287,0.950,-5.676,1.282,-6.165
0.005,0.276,0.937,-4.578,2.563,-8.606
0.018,0.262,0.924,-2.991,3.967,-9.216
0.046,0.256,0.912,-2.441,5.371,-8.179
0.061,0.248,0.911,-2.563,5.005,-6.775
0.060,0.248,0.923,-2.625,3.174,-4.578
0.059,0.250,0.937,-3.479,1.282,-2.686
0.057,0.256,0.948,-4.272,-0.061,-1.282
0.052,0.253,0.953,-4.761,-0.793,-0.427
0.056,0.248,0.951,-5.493,-0.549,0.305
0.054,0.243,0.946,-6.836,0.366,1.038
0.052,0.237,0.933,-7.446,1.953,4.028
0.059,0.255,0.943,-5.676,-1.282,7.812
0.048,0.263,0.964,-3.967,-6.165,6.470
0.021,0.262,0.986,-3.662,-8.301,1.770
-0.010,0.255,0.980,-4.211,-4.578,-1.099
-0.031,0.259,0.968,-3.784,-1.831,-2.014
-0.028,0.259,0.964,-3.479,-0.610,-2.197
-0.018,0.258,0.971,-3.540,-0.244,-2.014
-0.023,0.255,0.973,-4.028,0.061,-2.197
-0.044,0.255,0.977,-5.310,-0.305,-2.014
-0.075,0.271,0.999,-6.897,-2.319,-0.793
-0.122,0.296,1.038,-9.338,-3.296,0.427
-0.196,0.321,1.072,-11.597,-2.319,-0.366
-0.299,0.372,1.085,-13.245,0.427,-1.709
-0.373,0.420,1.087,-15.442,6.042,-4.822
-0.472,0.443,1.081,-16.907,8.850,-14.404
-0.541,0.466,1.064,-17.578,11.658,-23.926

1.748,-0.536,1.006,-85.144,14.954,-204.468
2.159,-0.720,1.124,-95.886,9.277,-200.623
2.550,-0.877,1.094,-89.905,3.723,-182.251
2.906,-1.058,0.974,-72.327,-3.662,-141.724
2.995,-1.234,0.869,-50.171,-16.541,-83.008
2.862,-1.321,0.799,-20.691,-31.006,-10.864
2.490,-1.412,0.767,9.888,-37.964,69.275
1.915,-1.409,0.702,31.738,-36.438,150.024
1.308,-1.303,0.633,40.771,-32.227,224.792
0.800,-1.162,0.585,48.035,-28.870,280.273
0.395,-1.021,0.552,59.326,-26.917,317.932
0.043,-0.932,0.564,67.932,-24.902,339.539
-0.310,-0.867,0.697,71.716,-24.048,351.135
-0.810,-0.715,0.897,74.158,-29.236,364.746
-1.490,-0.482,1.174,71.350,-38.818,389.404
-2.193,0.072,1.473,46.448,-41.992,407.471
-2.755,0.721,1.644,10.254,-30.762,401.367
-3.358,1.268,1.315,-20.020,-5.676,363.708
-3.595,1.551,0.967,-29.419,2.319,298.645
-3.550,1.560,0.848,-23.682,-7.874,229.187
-3.220,1.382,0.933,-1.160,-15.320,156.860
-2.820,1.078,0.991,20.569,-5.981,86.731
-2.498,0.836,0.966,16.357,14.648,31.555
-2.205,0.648,0.946,6.409,30.518,-9.583
-1.942,0.480,0.889,9.888,44.189,-56.152
-1.680,0.336,0.847,9.216,58.960,-104.858
-1.462,0.209,0.841,-1.038,70.984,-147.339
-1.272,0.091,0.857,-18.982,76.965,-181.030
-1.144,0.056,0.891,-46.509,80.505,-210.937
-1.020,0.022,1.032,-71.411,69.763,-239.380
-0.901,-0.205,1.113,-40.833,32.593,-239.441
-0.267,-0.054,1.026,-16.846,33.936,-223.694
-0.022,-0.294,0.981,-12.329,18.250,-265.076
0.329,-0.302,0.937,-13.062,-3.601,-278.442
0.477,-0.365,0.864,-27.954,-10.376,-288.940
0.668,-0.367,0.876,-48.218,-13.977,-280.884
0.922,-0.365,0.954,-57.800,-16.968,-269.958
1.177,-0.378,0.977,-60.669,-17.334,-260.376
1.353,-0.490,0.969,-72.083,-20.325,-256.165
1.588,-0.576,0.965,-74.585,-32.043,-250.488
1.810,-0.636,0.985,-79.163,-39.246,-235.413
2.015,-0.704,0.943,-72.571,-43.335,-215.637
2.208,-0.763,0.902,-58.533,-48.462,-198.975
2.399,-0.788,0.854,-47.913,-52.551,-175.781
2.567,-0.780,0.754,-29.297,-57.861,-143.127
2.700,-0.767,0.657,-11.169,-63.965,-99.976
2.724,-0.729,0.594,13.306,-72.021,-44.250
2.560,-0.715,0.570,41.931,-79.590,15.259
2.293,-0.709,0.578,64.331,-87.158,69.153
1.894,-0.733,0.655,82.764,-93.872,108.459
1.462,-0.745,0.699,99.548,-97.778,129.822
1.023,-0.859,0.685,119.507,-112.854,130.188
0.655,-0.847,0.734,118.652,-117.249,135.193
0.187,-0.791,0.824,96.313,-102.051,151.855
-0.286,-0.638,0.941,70.740,-77.332,164.978
-0.805,-0.399,1.107,37.292,-46.631,187.256
-1.250,-0.063,1.201,-12.024,-12.329,203.064
-1.781,0.440,1.455,-62.073,16.907,241.699
-2.165,0.868,1.303,-39.795,3.174,302.307
-2.248,1.130,1.178,-24.841,24.597,279.907
-2.043,1.080,1.026,-21.057,47.058,245.483
-1.726,0.870,0.972,-26.611,57.312,216.064
-1.388,0.768,1.023,-58.228,70.984,193.176
-1.204,0.641,1.015,-84.656,86.914,177.002
-1.051,0.640,0.965,-85.510,92.224,162.659
-0.944,0.602,0.900,-58.594,79.407,139.221
-0.863,0.621,0.832,-30.090,63.354,109.253
-0.764,0.620,0.788,-11.902,49.377,67.505
-0.626,0.570,0.787,-1.648,36.194,19.043
-0.492,0.511,0.821,2.258,23.865,-13.672
-0.352,0.440,0.858,7.935,13.123,-30.457
-0.218,0.375,0.923,11.719,5.737,-39.978
-0.089,0.313,0.980,15.259,2.563,-47.119
0.019,0.286,1.033,14.648,3.784,-53.162
0.121,0.243,1.085,11.047,7.507,-58.655
0.206,0.196,1.055,16.479,13.000,-61.401
0.289,0.158,1.016,19.531,16.602,-60.608
0.400,0.117,0.971,15.076,15.747,-57.922
0.453,0.140,0.896,5.371,16.052,-50.964
0.526,0.069,0.851,14.832,0.549,-40.955
0.471,0.133,0.918,24.841,-32.898,-42.175
0.420,0.129,0.946,-6.775,-20.935,-38.757
0.433,0.150,0.920,-16.357,4.395,-10.803
0.333,0.188,0.927,-9.644,4.456,-2.991
0.346,0.233,0.904,-13.062,8.911,5.615
0.309,0.235,0.921,-8.667,4.211,6.470
0.238,0.251,0.960,-8.362,-7.751,5.371
0.167,0.257,0.984,-7.141,-17.700,4.944
0.095,0.253,0.992,-7.629,-18.005,7.019
0.074,0.272,0.971,-9.521,-12.085,12.207
0.061,0.286,0.944,-9.827,-7.019,12.451
0.044,0.288,0.929,-10.437,-3.235,8.850
0.033,0.273,0.926,-7.874,-1.709,7.019
0.023,0.278,0.934,-3.723,-1.831,8.240
0.013,0.284,0.949,-2.014,0.183,8.667
0.012,0.281,0.957,-0.610,2.686,8.301
-0.000,0.287,0.947,1.160,4.028,8.240
-0.014,0.299,0.943,1.221,3.784,7.751
-0.013,0.295,0.939,0.977,2.563,6.531
-0.004,0.285,0.951,0.427,1.038,4.639
0.009,0.276,0.960,-0.366,-0.488,2.991
0.021,0.266,0.963,-1.526,-2.319,1.282
0.034,0.255,0.965,-2.441,-4.272,0.061
0.045,0.244,0.972,-3.601,-6.409,-0.183
0.063,0.242,0.970,-4.700,-7.996,0.305
0.070,0.235,0.968,-5.249,-9.460,1.343
0.070,0.239,0.970,-5.066,-11.353,2.563
0.059,0.245,0.979,-4.761,-12.390,3.540
0.050,0.253,0.977,-4.456,-11.963,4.089
0.046,0.254,0.965,-3.967,-10.986,4.272
0.052,0.255,0.953,-3.357,-9.888,4.211
0.059,0.257,0.943,-3.418,-8.667,4.150
0.068,0.256,0.938,-3.540,-7.507,4.333
0.075,0.257,0.935,-3.235,-6.409,5.005
0.081,0.257,0.927,-2.136,-4.761,5.981
0.089,0.253,0.922,-1.770,-3.418,7.202
0.097,0.246,0.922,-1.892,-2.991,8.667
0.105,0.242,0.931,-1.465,-2.563,10.803
0.110,0.235,0.939,-0.854,-2.136,13.367

-1.112,0.561,1.154,-0.793,25.330,37.415
-1.351,0.687,1.159,-3.174,34.180,16.968
-1.612,0.830,1.194,-4.944,40.649,-10.986
-1.839,0.967,1.189,-5.188,46.021,-47.791
-1.986,0.923,1.082,-8.240,54.199,-91.370
-1.929,0.748,0.958,-8.240,59.814,-131.165
-1.687,0.663,1.024,-0.549,55.786,-160.889
-1.396,0.488,1.020,-9.827,77.454,-197.266
-1.073,0.307,0.969,-34.973,105.225,-231.323
-0.719,0.083,0.812,-55.542,123.535,-257.324
-0.339,-0.106,0.637,-58.777,120.728,-274.658
0.234,-0.277,0.617,-60.852,105.042,-285.583
0.776,-0.525,0.561,-56.824,83.435,-291.931
1.230,-0.739,0.555,-60.852,47.668,-305.603
1.524,-0.915,0.672,-88.135,6.287,-308.105
1.947,-1.081,0.870,-102.478,-30.823,-289.978
2.377,-1.195,1.092,-99.976,-57.373,-263.611
2.659,-1.176,1.323,-92.773,-72.266,-232.605
2.868,-1.181,1.315,-72.021,-69.763,-199.951
3.021,-1.242,1.076,-51.880,-59.326,-170.532
3.071,-1.317,0.801,-37.170,-55.542,-129.639
2.983,-1.315,0.648,-20.203,-64.392,-67.871
2.771,-1.236,0.552,0.244,-73.853,3.784
2.446,-1.184,0.507,26.184,-81.665,75.684
2.089,-1.139,0.483,49.500,-87.097,135.437
1.716,-1.138,0.451,64.514,-89.050,179.932
1.421,-1.136,0.424,58.167,-83.008,207.581
1.079,-1.162,0.407,45.105,-81.726,216.553
0.737,-1.150,0.422,36.987,-84.290,223.999
0.391,-1.175,0.441,35.706,-84.473,238.220
-0.092,-1.210,0.627,31.372,-79.407,254.944
-0.654,-1.031,0.876,16.479,-63.965,282.776
-1.329,-0.767,1.043,-15.503,-35.583,314.331
-1.872,-0.385,1.083,-41.321,0.549,349.976
-2.405,0.077,1.104,-43.396,28.503,392.517
-2.665,0.330,1.127,-15.076,0.916,449.280
-2.956,0.808,1.258,-8.057,8.423,448.669
-3.041,1.105,1.153,-16.846,30.762,419.617
-3.124,1.122,0.912,-26.550,38.757,370.544
-2.980,1.236,0.808,-46.875,44.495,302.673
-2.814,1.154,0.792,-46.814,27.344,224.976
-2.575,1.029,0.849,-34.912,2.808,148.743
-2.388,0.924,0.926,-23.743,-14.709,84.839
-2.252,0.851,0.968,-12.817,-21.606,27.466
-2.086,0.743,0.951,0.122,-16.846,-29.480
-1.877,0.608,0.909,7.019,-1.099,-85.388
-1.660,0.480,0.874,10.193,18.616,-130.371
-1.453,0.375,0.869,15.747,36.865,-165.039
-1.277,0.294,0.894,19.165,53.040,-194.885
-1.132,0.223,0.905,20.447,67.993,-221.802
-0.934,0.135,0.920,18.372,82.458,-244.263
-0.640,-0.005,0.917,19.409,99.243,-262.329
-0.263,-0.200,0.935,22.461,115.356,-278.320
0.238,-0.345,0.749,17.029,131.958,-281.982
0.712,-0.723,0.705,23.010,104.187,-286.011
1.159,-0.602,0.898,36.865,32.715,-282.715
1.514,-0.563,0.881,9.888,16.113,-290.710
1.580,-0.648,0.964,-38.086,9.277,-297.791
1.759,-0.768,1.068,-84.717,-2.441,-276.123
2.062,-0.889,1.005,-88.928,-7.446,-234.863
2.287,-0.880,0.941,-82.336,-20.935,-199.768
2.354,-0.810,0.890,-68.909,-36.255,-160.767
2.357,-0.738,0.804,-49.683,-39.978,-108.948
2.227,-0.610,0.762,-29.419,-42.236,-58.899
1.959,-0.504,0.745,-11.719,-42.053,-7.324
1.635,-0.394,0.739,3.906,-39.795,40.955
1.313,-0.294,0.748,16.052,-39.978,78.979
1.001,-0.211,0.746,29.602,-49.255,100.952
0.689,-0.134,0.756,45.532,-71.106,106.873
0.470,-0.096,0.788,62.744,-100.952,93.445
0.320,-0.113,0.836,65.002,-126.892,70.129
0.119,-0.111,0.854,47.424,-129.578,49.377
-0.085,-0.060,0.944,21.790,-112.305,36.987
-0.386,0.057,1.044,-11.780,-81.299,40.710
-0.690,0.308,1.070,-42.053,-42.297,54.993
-1.079,0.643,1.112,-67.017,-7.629,76.294
-1.156,0.623,0.960,-51.147,-16.541,124.084
-1.117,0.703,0.875,-20.203,-8.484,131.226
-1.042,0.696,0.856,-4.639,5.188,123.901
-0.943,0.688,0.823,4.517,22.217,122.192
-0.842,0.622,0.810,0.854,34.668,118.469
-0.776,0.521,0.801,-5.737,41.748,112.244
-0.667,0.498,0.820,-9.399,44.373,106.873
-0.559,0.530,0.886,-9.094,40.039,97.229
-0.478,0.517,0.923,-4.639,34.302,76.294
-0.379,0.468,0.942,-0.977,26.794,47.485
-0.289,0.422,0.974,3.296,15.625,16.907
-0.220,0.353,0.995,3.418,5.554,-7.446
-0.150,0.293,1.002,3.113,-1.770,-22.827
-0.079,0.252,1.011,2.563,-4.761,-29.236
-0.001,0.233,1.021,2.747,-4.883,-30.396
0.056,0.224,1.022,3.113,-4.517,-30.701
0.103,0.214,1.021,4.822,-3.418,-30.518
0.142,0.212,1.021,6.348,-2.075,-29.602
0.167,0.208,1.019,7.446,-0.305,-28.748
0.194,0.201,1.012,7.996,1.770,-27.710
0.226,0.187,1.005,7.507,3.601,-26.062
0.260,0.175,0.995,5.981,4.456,-23.682
0.289,0.167,0.985,5.005,4.578,-20.081
0.306,0.164,0.982,3.723,3.845,-15.991
0.321,0.164,0.979,1.831,2.686,-11.230
0.320,0.161,0.974,-0.671,1.221,-6.042
0.290,0.166,0.976,-3.357,-0.244,-0.610
0.238,0.187,0.977,-5.615,-1.526,5.615
0.187,0.215,0.981,-6.836,-1.465,11.719
0.123,0.245,0.997,-7.935,-1.526,15.564
0.066,0.258,1.000,-10.071,-0.671,16.724
0.038,0.282,0.996,-10.132,0.061,17.639
0.022,0.287,0.996,-9.644,-1.526,14.771
0.005,0.274,0.993,-10.620,-2.563,10.498
-0.008,0.265,0.994,-9.766,-1.648,8.301
-0.013,0.264,0.981,-8.667,0.916,7.446
-0.015,0.267,0.961,-6.653,4.089,6.775
-0.013,0.256,0.937,-4.395,7.202,5.615
-0.016,0.252,0.924,-2.014,7.385,4.333
-0.029,0.254,0.923,-1.770,6.104,3.845
-0.033,0.248,0.915,-1.465,4.761,2.930
-0.031,0.246,0.908,-2.380,3.174,2.380
-0.028,0.244,0.911,-2.686,1.526,1.282

1.924,-0.789,1.199,-77.576,30.151,-178.528
2.392,-1.069,1.104,-91.980,16.968,-167.542
2.788,-1.292,0.989,-98.450,-2.991,-135.803
2.988,-1.441,0.901,-94.543,-17.456,-69.092
2.737,-1.604,0.728,-76.294,-26.733,13.306
2.201,-1.514,0.679,-44.800,-33.386,99.121
1.519,-1.356,0.703,-18.494,-32.837,185.303
0.863,-1.226,0.739,8.728,-26.001,249.146
0.377,-1.074,0.731,37.170,-11.597,292.480
0.045,-0.936,0.709,59.631,-0.305,318.970
-0.171,-0.825,0.728,70.190,7.263,341.187
-0.509,-0.751,0.756,76.904,5.005,367.615
-0.954,-0.645,0.915,79.529,-4.761,392.273
-1.528,-0.307,1.180,63.110,-7.996,415.161
-2.156,0.173,1.340,32.715,-4.883,419.556
-2.820,0.854,1.367,-7.690,3.723,396.118
-3.241,1.362,1.199,-28.748,13.733,345.642
-3.386,1.579,0.964,-32.410,24.597,274.536
-3.314,1.501,0.775,-29.236,33.508,202.393
-3.145,1.396,0.743,-14.282,26.001,140.259
-2.900,1.243,0.810,2.869,20.935,83.618
-2.681,1.089,0.827,19.470,25.635,31.006
-2.541,0.994,0.800,19.043,33.630,-16.541
-2.392,0.855,0.804,12.817,36.194,-72.937
-2.204,0.697,0.790,6.836,39.490,-131.165
-1.992,0.488,0.760,3.357,39.307,-187.988
-1.849,0.263,0.808,-6.042,36.377,-233.337
-1.592,0.157,0.788,-18.616,44.922,-249.573
-1.361,0.069,0.848,-37.231,44.312,-287.354
-1.016,-0.062,0.929,-60.242,43.396,-323.975
-0.556,-0.312,0.933,-57.983,41.687,-340.210
-0.103,-0.427,0.849,-31.860,35.889,-332.275
0.411,-0.757,0.810,-30.884,30.640,-341.858
0.710,-0.874,0.851,-15.747,-24.048,-341.858
0.966,-0.833,0.978,-23.376,-52.795,-317.749
1.237,-0.915,1.168,-43.152,-62.683,-306.274
1.579,-1.066,1.266,-54.321,-64.453,-292.603
2.010,-1.143,1.388,-69.336,-63.660,-262.573
2.349,-1.160,1.402,-78.003,-60.303,-217.041
2.681,-1.176,1.336,-66.833,-57.190,-182.617
2.927,-1.231,1.110,-45.776,-53.040,-162.415
2.988,-1.175,0.928,-31.555,-54.749,-132.751
2.846,-1.082,0.851,-20.569,-58.655,-86.365
2.569,-0.953,0.799,1.648,-61.401,-25.696
2.201,-0.831,0.742,28.320,-64.087,29.968
1.837,-0.739,0.709,48.401,-65.369,74.341
1.497,-0.654,0.693,63.965,-71.838,102.966
1.159,-0.608,0.663,78.064,-84.229,113.098
0.913,-0.522,0.627,80.627,-94.055,109.131
0.720,-0.546,0.664,90.515,-114.746,95.459
0.487,-0.516,0.699,94.177,-133.484,88.379
0.179,-0.494,0.829,74.402,-125.061,102.112
-0.256,-0.342,0.945,41.443,-100.769,119.629
-0.715,-0.153,1.052,4.211,-67.566,134.399
-1.143,0.139,1.171,-35.828,-23.376,156.494
-1.488,0.487,1.181,-67.322,33.203,181.519
-1.812,0.861,1.031,-77.271,84.839,200.928
-1.894,1.119,0.915,-76.782,89.844,214.172
-1.872,1.157,0.874,-39.978,54.688,230.713
-1.630,1.102,0.951,-20.874,68.298,216.675
-1.391,0.948,0.970,-21.240,78.918,195.312
-1.193,0.845,0.980,-35.095,81.604,171.692
-1.040,0.767,0.970,-40.039,82.825,144.165
-0.906,0.754,0.959,-39.307,85.205,115.723
-0.796,0.701,0.920,-29.968,79.407,88.806
-0.665,0.681,0.903,-17.334,68.359,58.838
-0.545,0.625,0.924,-2.502,48.828,22.095
-0.434,0.530,0.930,10.315,32.471,-9.705
-0.291,0.445,0.943,14.771,22.705,-31.250
-0.153,0.365,0.951,15.930,16.235,-43.518
-0.024,0.297,0.963,14.954,11.047,-50.598
0.063,0.252,0.980,12.512,7.141,-54.077
0.132,0.228,0.980,10.681,5.737,-54.993
0.206,0.204,0.984,8.240,6.653,-54.199
0.260,0.177,0.957,6.775,7.202,-52.307
0.306,0.162,0.919,5.737,6.531,-49.500
0.349,0.154,0.911,2.686,4.150,-45.654
0.400,0.142,0.906,-2.380,1.709,-41.321
0.426,0.143,0.900,-5.676,-0.305,-35.095
0.467,0.144,0.884,-8.118,-2.136,-30.212
0.453,0.097,0.894,-10.254,-6.653,-26.733
0.426,0.094,0.926,-15.930,-6.714,-11.963
0.394,0.151,0.944,-14.709,-1.526,8.606
0.373,0.217,0.947,-9.338,7.385,25.024
0.351,0.285,0.940,-9.033,11.658,26.123
0.250,0.245,0.946,-8.545,9.033,14.282
0.170,0.262,0.963,-1.709,-1.038,13.916
0.105,0.296,0.999,1.221,-6.531,15.564
0.061,0.290,1.002,-3.418,-3.601,12.817
0.042,0.278,0.988,-6.409,-0.549,13.245
0.028,0.283,0.976,-5.676,0.000,14.221
0.012,0.294,0.968,-3.784,-0.366,15.625
0.000,0.309,0.965,-1.831,0.732,14.771
-0.001,0.288,0.940,-2.197,2.869,11.780
-0.002,0.284,0.929,-1.892,2.380,11.658
-0.003,0.293,0.927,-2.014,1.831,11.902
-0.010,0.293,0.918,-2.686,1.648,11.230
-0.023,0.297,0.912,-3.662,0.732,10.437
-0.039,0.301,0.911,-4.150,-0.488,9.644
-0.046,0.305,0.910,-4.883,-2.197,8.545
-0.044,0.306,0.913,-6.348,-3.540,6.836
-0.037,0.307,0.917,-7.874,-5.066,4.883
-0.029,0.308,0.921,-8.728,-6.042,3.235
-0.017,0.305,0.918,-8.606,-6.531,1.160
-0.000,0.306,0.923,-6.165,-7.324,-0.488
0.013,0.301,0.924,-3.906,-7.812,-1.892
0.029,0.297,0.932,-2.808,-8.057,-3.479
0.040,0.291,0.943,-2.563,-7.751,-4.700
0.049,0.290,0.950,-2.441,-6.775,-5.432
0.057,0.288,0.945,-2.075,-5.310,-5.554
0.062,0.287,0.934,-2.502,-3.601,-4.639
0.066,0.290,0.933,-2.747,-3.174,-3.418
0.056,0.300,0.943,-1.587,-2.869,-2.625
0.056,0.302,0.952,-0.793,-1.953,-2.441
0.065,0.299,0.963,-0.977,0.000,-2.747
0.073,0.292,0.967,-0.854,2.686,-2.563
0.084,0.289,0.964,-0.244,5.066,-1.892
0.092,0.285,0.954,-0.305,6.226,-1.038
0.089,0.288,0.957,-0.305,5.615,0.122

-1.344,0.967,1.380,0.000,-11.353,37.659
-1.799,1.277,1.278,-2.747,2.563,-4.211
-2.188,1.393,1.017,1.648,18.860,-61.096
-2.373,1.430,0.936,8.057,35.095,-117.737
-2.272,1.295,0.990,19.897,54.199,-169.495
-2.026,0.949,0.976,28.381,85.144,-218.811
-1.798,0.623,0.886,10.620,121.277,-254.150
-1.476,0.286,0.908,-11.047,153.625,-272.766
-1.110,-0.039,0.856,-12.329,185.181,-280.884
-0.587,-0.344,0.753,-5.005,206.421,-286.499
0.102,-0.499,0.576,-4.639,198.425,-285.034
0.776,-0.657,0.455,-12.512,169.739,-288.635
1.288,-0.872,0.406,-28.748,124.573,-300.232
1.643,-1.078,0.453,-51.025,69.885,-310.242
1.877,-1.220,0.737,-83.069,3.052,-313.171
2.131,-1.390,0.986,-105.408,-47.668,-298.218
2.372,-1.542,0.992,-87.891,-72.021,-268.982
2.529,-1.538,0.930,-75.623,-85.327,-228.271
2.617,-1.487,0.906,-63.416,-97.656,-179.993
2.637,-1.497,0.854,-49.194,-96.863,-124.512
2.612,-1.515,0.729,-34.912,-87.280,-63.354
2.447,-1.481,0.651,-16.235,-87.585,-0.244
2.193,-1.376,0.648,0.916,-91.125,60.608
1.950,-1.296,0.630,13.123,-87.952,112.671
1.707,-1.247,0.620,17.822,-82.642,150.208
