aX,aY,aZ,gX,gY,gZ
-0.406,-0.234,2.276,10.193,18.799,3.967
-0.437,-0.239,2.342,3.784,11.902,-7.324
-0.462,-0.237,2.383,-5.127,5.615,-23.315
-0.354,-0.168,2.254,-10.071,-1.038,-26.978
-0.217,-0.088,2.089,-12.695,-15.869,-28.381
-0.165,-0.039,1.964,-10.803,-34.058,-37.903
-0.059,-0.027,1.809,-1.892,-41.687,-40.039
0.015,-0.003,1.696,9.216,-43.762,-28.381
0.072,-0.033,1.591,8.972,-51.453,-19.409
0.093,-0.029,1.470,-6.592,-61.523,-17.456
0.113,0.002,1.266,-39.551,-67.017,-15.564
0.126,0.083,1.062,-76.172,-65.735,-12.756
0.059,0.108,0.721,-91.309,-44.495,-14.465
-0.053,0.133,0.429,-96.191,-19.897,-24.170
-0.096,0.104,0.211,-83.740,-3.296,-37.415
-0.057,0.208,0.056,-61.218,-4.761,-31.616
-0.058,0.160,-0.016,-41.077,-10.132,1.465
-0.025,0.165,-0.008,-33.020,-18.555,1.892
-0.002,0.183,0.010,-26.123,-25.452,4.883
0.029,0.085,-0.015,-11.963,-28.564,7.935
0.066,0.046,-0.025,-4.517,-29.907,11.292
0.124,0.000,0.008,-6.470,-27.100,15.198
0.165,-0.052,0.041,-11.292,-20.630,19.470
0.202,-0.098,0.109,-14.465,-17.151,23.987
0.240,-0.138,0.180,-16.663,-13.672,26.245
0.268,-0.161,0.180,-17.883,-10.193,25.269
0.287,-0.181,0.203,-12.573,-7.263,21.729
0.284,-0.201,0.235,-4.150,-6.226,16.357
0.285,-0.184,0.269,-1.038,-7.996,8.667
0.266,-0.172,0.260,5.493,-7.324,-0.732
0.229,-0.152,0.256,8.118,-7.996,-7.263
0.220,-0.139,0.283,8.667,-9.094,-12.329
0.189,-0.090,0.277,2.625,-10.437,-18.616
0.178,-0.087,0.222,-2.869,-11.414,-22.461
0.140,-0.024,0.221,-2.930,-13.123,-29.907
0.169,-0.048,0.258,-0.305,-16.602,-40.771
0.129,-0.035,0.275,4.333,-20.813,-52.795
0.135,-0.008,0.280,3.235,-25.574,-61.646
0.129,0.079,0.319,-6.104,-34.363,-74.036
0.168,0.118,0.396,-11.108,-42.236,-80.017
0.205,0.150,0.404,-8.423,-44.983,-89.417
0.206,0.162,0.508,-13.733,-45.715,-103.088
0.085,0.250,1.061,-14.221,-26.123,-112.061
0.049,-0.052,0.964,54.871,22.339,-106.995
-0.090,-0.071,1.148,55.542,36.682,-101.563
-0.135,-0.050,1.319,39.551,53.467,-87.158
-0.184,-0.053,1.346,26.062,72.327,-85.510
-0.216,-0.028,1.460,10.986,89.111,-77.148
-0.213,0.038,1.528,-0.977,99.548,-62.683
-0.225,0.100,1.494,-0.977,96.619,-50.842
-0.117,0.172,1.518,-5.066,103.394,-36.926
-0.076,0.151,1.498,4.333,96.497,-31.494
-0.068,0.155,1.474,13.855,75.317,-19.165
-0.063,0.138,1.481,18.005,58.960,-8.423
-0.063,0.090,1.504,18.311,51.147,-3.418
-0.026,0.118,1.627,8.606,46.448,0.488
-0.018,0.065,1.676,11.108,39.490,3.784
-0.041,0.059,1.736,8.484,31.128,8.545
-0.051,0.047,1.745,-6.714,21.729,13.489
-0.073,0.040,1.744,-12.085,15.137,17.334
-0.118,0.027,1.742,-5.615,13.367,17.456
-0.136,0.014,1.710,-5.249,15.259,15.442
-0.133,0.015,1.608,-9.094,15.564,13.428
-0.155,0.035,1.497,-11.169,12.878,11.719
-0.164,0.043,1.404,-10.681,9.155,8.606
-0.167,0.059,1.337,-10.315,5.310,3.113
-0.148,0.077,1.271,-10.437,2.380,-2.625
-0.101,0.085,1.213,-11.841,-1.160,-7.996
-0.064,0.106,1.138,-12.085,-3.967,-11.230
-0.028,0.082,1.068,-12.573,-7.812,-12.573
-0.012,0.080,1.031,-11.658,-11.536,-11.841
-0.001,0.074,1.002,-10.559,-14.099,-10.010
0.002,0.077,1.007,-10.437,-14.587,-9.705
0.025,0.059,1.002,-10.376,-12.390,-9.827
0.038,0.042,0.990,-10.742,-9.583,-10.437
0.049,0.036,0.971,-11.902,-6.653,-10.132
0.068,0.050,0.958,-12.512,-3.296,-9.460
0.086,0.082,0.951,-13.611,0.366,-10.376
0.112,0.055,0.919,-13.672,3.601,-11.230
0.119,0.080,0.935,-11.597,5.005,-11.658
0.109,0.055,0.943,-15.076,5.676,-15.198
0.214,0.128,0.931,-12.329,6.836,-15.198
0.141,0.134,0.971,-11.719,6.836,-14.771
0.174,0.131,0.999,-8.362,7.141,-19.775
0.124,0.090,0.984,-6.226,8.850,-25.452
0.096,0.085,0.981,-13.855,9.399,-27.832
0.070,0.059,1.012,-14.526,9.460,-26.794
0.046,0.073,0.998,-9.644,9.277,-27.405
0.013,-0.002,1.019,-5.920,9.033,-28.687
-0.013,-0.011,1.047,-1.099,8.301,-27.344
-0.042,-0.033,1.068,2.014,7.935,-23.682
-0.062,-0.050,1.080,7.629,8.484,-18.494
-0.028,-0.026,1.054,3.479,9.644,-10.925
0.015,0.055,1.051,-7.446,10.071,-5.066
0.018,0.049,1.097,-15.015,8.728,-6.165
0.070,0.040,1.097,-15.442,7.263,-7.019
0.054,0.034,1.086,-18.127,6.470,-6.714
0.040,0.021,1.048,-24.536,6.714,-4.150
0.033,0.061,1.003,-26.855,7.141,-0.366
0.033,0.112,0.978,-24.536,5.920,2.075
0.020,0.144,0.992,-15.442,3.845,1.648
0.015,0.127,1.018,-2.258,2.625,-0.854
0.028,0.097,1.038,5.737,3.235,-2.686
0.051,0.067,1.047,2.075,4.883,-3.723
0.068,0.038,1.048,-5.066,6.287,-5.127
0.061,0.073,1.045,-13.611,7.507,-4.150
0.056,0.103,1.027,-17.700,8.545,-2.808
0.042,0.142,1.020,-20.508,8.789,-1.892
0.049,0.158,1.008,-17.395,7.751,-1.587
0.077,0.155,0.995,-11.597,6.042,-0.916
0.092,0.111,1.006,-5.432,2.747,-0.244
0.083,0.095,1.049,-2.625,-0.366,-0.732
0.090,0.091,1.035,-2.197,-0.305,-0.732
0.091,0.082,1.008,-2.258,0.183,-1.160
0.086,0.093,1.000,-2.625,-0.244,-1.648
0.072,0.107,1.012,0.366,-0.305,-1.221
0.075,0.118,1.013,-1.221,1.160,-0.732
0.079,0.114,0.998,-9.644,3.296,-0.061
0.091,0.083,0.979,-11.902,4.578,-0.061

-0.179,0.331,2.642,55.481,1.648,-8.850
-0.199,0.299,2.853,35.278,30.212,-8.179
-0.174,0.259,2.811,14.832,55.725,-2.136
-0.099,0.294,2.506,-3.845,65.735,8.240
0.011,0.308,2.074,-6.836,57.983,18.616
0.132,0.351,1.787,7.141,30.029,25.635
0.248,0.389,1.704,24.170,-11.230,25.452
0.357,0.357,1.794,31.738,-51.392,15.808
0.436,0.187,1.898,31.372,-73.914,3.784
0.467,-0.080,1.830,27.527,-69.885,1.770
0.462,-0.173,1.605,18.555,-45.715,18.311
0.473,-0.132,1.283,23.010,-18.005,47.058
0.361,-0.153,0.903,34.119,3.296,66.711
0.150,-0.061,0.519,37.903,15.503,84.167
-0.070,0.041,0.205,54.016,15.137,99.976
-0.301,0.085,-0.003,45.166,2.136,103.088
-0.273,0.301,0.133,-20.569,-16.602,93.201
-0.217,0.193,0.311,-34.485,-30.396,62.195
-0.168,0.059,0.312,-44.250,-30.640,34.241
-0.088,0.009,0.144,-50.354,-20.813,22.034
0.003,0.048,0.036,-45.349,-12.939,17.761
0.115,0.133,-0.030,-30.701,-9.094,14.465
0.066,0.000,-0.120,-13.184,-9.583,5.798
0.234,-0.021,-0.136,-16.602,-15.015,-12.024
0.436,-0.097,-0.081,-12.817,-21.729,-22.278
0.526,-0.032,0.047,-2.319,-28.015,-20.081
0.549,-0.158,0.004,27.832,-29.297,-9.827
0.472,-0.193,-0.013,39.490,-32.715,-8.057
0.355,-0.217,-0.010,40.222,-38.513,-8.850
0.319,-0.234,-0.104,42.297,-33.752,-8.057
0.268,-0.273,-0.045,51.636,-33.569,-1.709
0.111,-0.300,0.004,54.077,-39.917,6.653
0.011,-0.215,0.067,52.429,-41.016,9.583
-0.036,-0.232,0.154,53.345,-36.987,7.263
-0.050,-0.259,0.212,52.307,-31.128,2.380
-0.047,-0.263,0.221,51.941,-23.987,-1.770
-0.036,-0.291,0.218,53.406,-17.700,-6.042
-0.022,-0.276,0.258,55.298,-13.306,-9.094
-0.004,-0.245,0.331,54.810,-11.902,-12.878
0.025,-0.248,0.409,50.354,-13.062,-18.188
0.036,-0.257,0.449,41.382,-12.756,-21.851
0.048,-0.261,0.540,31.921,-12.939,-23.743
0.059,-0.250,0.705,26.489,-13.794,-23.865
0.045,-0.215,0.882,17.029,-10.559,-22.949
0.095,-0.188,0.941,4.517,-2.136,-22.644
0.174,-0.172,0.982,-14.282,5.981,-20.264
0.200,-0.078,1.053,-24.231,13.000,-12.756
0.206,0.093,1.066,-9.216,21.240,-11.841
0.153,0.047,1.107,24.902,20.203,-26.855
0.068,-0.098,1.140,24.536,19.287,-36.499
0.105,-0.190,1.124,-0.793,27.222,-31.677
0.099,-0.076,1.222,-13.550,23.926,-11.414
0.013,-0.036,1.343,-11.597,15.503,-0.916
-0.064,-0.024,1.397,-16.113,15.076,3.479
-0.089,-0.024,1.433,-25.330,18.616,4.211
-0.106,0.011,1.475,-40.894,20.630,4.578
-0.108,0.119,1.481,-55.237,20.630,3.723
-0.189,0.092,1.460,-72.571,19.897,-1.648
-0.231,0.006,1.494,-64.209,16.052,-8.118
-0.200,0.024,1.495,-51.208,15.137,-7.263
-0.152,0.105,1.501,-49.561,14.771,-3.418
-0.136,0.130,1.511,-53.162,13.611,-4.028
-0.118,0.130,1.462,-55.725,14.832,-6.165
-0.103,0.140,1.405,-52.734,17.090,-6.592
-0.106,0.132,1.378,-48.279,16.907,-6.531
-0.084,0.150,1.357,-41.260,14.221,-5.493
-0.075,0.148,1.333,-34.607,10.803,-5.005
-0.050,0.146,1.306,-30.334,7.141,-4.700
-0.019,0.172,1.279,-30.945,4.211,-3.967
-0.000,0.180,1.249,-30.579,1.465,-5.676
-0.027,0.141,1.224,-31.738,-0.671,-9.277
-0.026,0.094,1.227,-25.146,-2.991,-11.597
-0.004,0.084,1.234,-21.484,-3.845,-10.254
0.029,0.087,1.242,-21.118,-3.174,-8.484
0.054,0.121,1.201,-22.644,0.732,-6.592
0.068,0.131,1.127,-24.841,5.798,-5.798
0.083,0.125,1.065,-27.283,7.080,-5.432
0.071,0.103,1.027,-23.804,5.920,-3.662
0.074,0.134,1.007,-19.470,5.249,-1.648
0.065,0.181,0.995,-21.667,4.272,-1.160
0.078,0.213,0.982,-23.743,1.404,-4.456
0.046,0.132,0.976,-30.701,-2.014,-11.230
0.059,0.076,0.985,-27.893,-4.944,-15.076
0.037,0.105,1.015,-23.437,-6.165,-13.306
0.009,0.063,1.006,-13.000,-6.104,-12.390
0.056,-0.010,0.967,-3.906,-4.639,-11.414
0.060,-0.007,0.974,-19.348,-5.188,-10.376
0.042,0.061,0.992,-37.292,-5.371,-6.897
0.014,0.079,0.979,-29.480,-3.174,-4.822
0.002,0.068,0.964,-16.541,-1.648,-3.967
0.032,0.073,0.944,-10.925,-1.160,-2.258
0.040,0.090,0.946,-14.893,-2.563,-0.793
0.052,0.103,0.944,-16.724,-3.662,0.488
0.053,0.099,0.943,-15.747,-4.456,1.282
0.039,0.122,0.949,-19.226,-5.188,1.831
0.015,0.143,0.950,-20.081,-4.517,2.075
0.004,0.164,0.943,-17.517,-3.601,0.793
0.007,0.175,0.940,-16.602,-3.052,-1.831
0.013,0.173,0.949,-15.564,-2.502,-3.845
0.024,0.165,0.952,-12.939,-2.319,-6.104
0.022,0.161,0.950,-10.559,-1.648,-7.568
0.018,0.168,0.946,-8.362,-1.038,-8.423
0.037,0.172,0.936,-8.362,-1.526,-8.972
0.046,0.164,0.944,-7.935,-3.235,-9.399
0.044,0.160,0.966,-7.751,-4.333,-8.972
0.041,0.161,0.987,-6.714,-4.150,-7.690
0.049,0.163,0.998,-6.287,-3.723,-5.920
0.037,0.169,1.003,-3.174,-2.808,-4.395
0.033,0.160,1.007,-1.404,-0.793,-3.784
0.041,0.163,1.001,-4.639,1.648,-2.747
0.050,0.174,0.990,-6.836,3.418,-1.770
0.048,0.177,0.975,-5.432,4.211,-1.099
0.042,0.180,0.966,-3.052,4.028,-0.732
0.034,0.177,0.960,-1.038,3.113,-0.916
0.036,0.175,0.969,-1.892,1.770,-1.404
0.042,0.170,0.981,-3.906,-0.244,-1.892
0.047,0.167,0.987,-4.456,-2.319,-1.953
0.054,0.160,0.987,-4.700,-3.479,-1.892
0.056,0.157,0.991,-4.639,-4.456,-1.465

-0.357,0.405,2.132,78.003,18.738,24.292
-0.403,0.389,2.399,91.736,10.376,18.677
-0.407,0.290,2.597,102.417,-1.770,6.775
-0.378,0.102,2.718,99.060,-18.494,-7.080
-0.364,-0.117,2.852,84.167,-38.147,-15.808
-0.368,-0.307,2.914,69.397,-50.903,-14.832
-0.365,-0.533,2.738,54.504,-43.030,-7.324
-0.273,-0.622,2.303,21.118,-17.822,8.301
-0.235,-0.448,1.883,-14.282,5.371,29.480
-0.212,-0.309,1.489,-26.855,20.081,40.161
-0.138,-0.218,1.028,-26.794,27.527,41.748
0.023,-0.075,0.590,-29.053,29.968,42.114
0.124,0.151,0.461,-46.997,25.757,39.429
0.209,0.291,0.374,-51.880,17.151,31.189
0.347,0.357,0.276,-47.852,4.639,19.775
0.458,0.325,0.224,-55.603,-12.878,10.071
0.488,0.265,0.226,-69.336,-27.283,6.775
0.472,0.189,0.191,-64.941,-31.311,11.536
0.412,0.162,0.068,-43.823,-26.978,22.827
0.264,0.188,-0.019,-26.428,-24.780,35.522
0.158,0.202,-0.135,-20.996,-18.799,41.992
0.058,0.211,-0.142,-15.076,-15.381,40.100
-0.039,0.101,-0.079,0.061,-15.198,31.677
-0.077,-0.005,0.013,6.470,-15.137,26.306
-0.093,-0.072,0.080,10.864,-11.780,21.790
-0.077,-0.144,0.068,18.738,-5.005,18.555
-0.023,-0.189,0.076,16.602,2.258,16.357
0.028,-0.253,0.136,9.460,6.470,14.709
0.100,-0.335,0.107,1.648,12.817,15.930
0.110,-0.353,0.146,-7.874,17.151,19.836
0.125,-0.332,0.192,-10.681,18.860,24.963
0.139,-0.292,0.219,-10.742,20.935,29.358
0.135,-0.286,0.235,-4.822,20.813,29.663
0.123,-0.257,0.236,-4.211,20.569,28.198
0.099,-0.246,0.235,0.488,17.822,25.330
0.066,-0.204,0.248,3.540,11.658,20.325
0.023,-0.177,0.257,7.263,3.540,11.108
-0.024,-0.159,0.274,10.437,-4.333,-1.404
-0.046,-0.126,0.295,15.320,-12.268,-13.916
-0.052,-0.101,0.356,19.226,-20.142,-27.954
-0.044,-0.141,0.428,27.039,-25.818,-42.297
-0.014,-0.151,0.504,31.494,-28.259,-49.622
0.026,-0.171,0.593,35.217,-27.649,-52.124
0.075,-0.186,0.679,46.570,-22.644,-50.903
0.113,-0.175,0.703,63.416,-14.038,-45.044
0.152,-0.099,0.755,68.665,-8.057,-35.522
0.146,-0.012,0.837,69.153,-5.310,-26.611
0.139,0.001,0.845,70.984,0.183,-25.940
0.163,-0.030,0.829,69.397,7.629,-27.527
0.159,-0.013,0.831,69.702,17.090,-21.118
0.137,0.029,0.868,71.167,26.489,-12.268
0.122,0.076,0.869,67.993,36.133,-3.845
0.111,0.132,0.880,63.965,43.579,2.380
0.083,0.075,0.945,63.416,44.373,1.770
0.051,-0.116,0.966,55.298,39.978,1.282
-0.018,-0.058,1.156,4.761,32.776,11.230
-0.050,-0.038,1.279,-16.724,29.724,16.296
-0.120,-0.053,1.363,-5.859,33.752,14.893
-0.259,-0.111,1.467,0.122,37.537,10.620
-0.230,-0.118,1.382,-7.324,51.636,4.639
-0.287,-0.152,1.409,-12.390,58.044,-2.075
-0.246,-0.122,1.475,-33.325,56.519,-8.423
-0.165,-0.073,1.482,-63.599,60.608,-13.611
-0.089,-0.079,1.498,-72.449,58.228,-21.057
-0.052,-0.123,1.587,-72.083,50.171,-26.672
-0.022,-0.135,1.643,-70.068,43.274,-27.893
0.014,-0.149,1.633,-69.336,38.879,-26.428
0.024,-0.147,1.643,-67.505,34.546,-21.973
0.035,-0.129,1.634,-64.026,31.250,-14.343
0.068,-0.054,1.577,-67.993,30.579,-6.897
0.088,0.006,1.501,-69.702,29.846,-3.662
0.098,0.045,1.426,-67.139,26.672,-2.747
0.090,0.051,1.381,-59.631,21.729,-2.808
0.085,0.060,1.343,-52.612,16.602,-2.441
0.083,0.053,1.317,-46.082,10.254,-2.319
0.078,0.047,1.304,-42.053,2.625,-1.709
0.068,0.057,1.286,-35.645,-3.479,-0.854
0.047,0.056,1.247,-27.405,-7.629,-1.526
0.031,0.024,1.191,-20.813,-9.949,-3.296
0.026,0.028,1.134,-19.958,-10.559,-2.869
0.027,0.049,1.083,-18.860,-10.620,-2.380
0.028,0.067,1.042,-17.700,-11.536,-2.808
0.032,0.061,1.000,-15.320,-11.780,-4.150
0.045,0.055,0.956,-14.038,-11.841,-5.798
0.059,0.057,0.920,-12.573,-12.268,-7.019
0.066,0.057,0.904,-10.132,-13.000,-7.996
0.060,0.057,0.912,-6.897,-13.977,-9.094
0.114,0.024,0.903,-5.127,-15.564,-9.705
0.064,0.030,0.939,-2.991,-16.968,-6.775
0.040,0.033,0.927,4.822,-15.869,-6.165
0.045,0.028,0.940,1.831,-14.832,-6.409
0.054,0.032,0.941,-1.526,-12.939,-6.470
0.054,0.029,0.930,-3.174,-9.888,-6.348
0.045,0.038,0.927,-4.578,-6.958,-5.371
0.050,0.060,0.926,-5.188,-4.517,-5.249
0.068,0.047,0.934,-6.165,-3.052,-7.568
0.072,0.039,0.947,-6.897,-1.953,-8.423
0.083,0.042,0.956,-7.385,-0.854,-7.629
0.067,0.046,0.967,-9.094,0.244,-6.226
0.056,0.043,0.969,-11.108,0.427,-5.798
0.044,0.047,0.974,-17.273,0.366,-5.737
0.021,0.081,0.976,-26.123,0.061,-6.409
0.017,0.084,0.977,-33.020,-1.770,-10.071
0.026,0.074,0.973,-37.720,-3.235,-14.771
0.067,0.065,0.973,-34.973,-4.700,-18.127
0.094,0.065,0.966,-29.907,-5.493,-17.883
0.108,0.096,0.939,-21.973,-5.920,-14.954
0.107,0.115,0.941,-11.719,-6.958,-14.954
0.106,0.094,0.960,-7.080,-8.362,-16.479
0.116,0.085,0.972,-5.737,-7.751,-16.296
0.097,0.073,0.987,-2.991,-6.287,-14.282
0.065,0.079,0.992,-0.671,-4.333,-11.108
0.044,0.075,0.999,1.648,-2.869,-10.559
0.030,0.055,1.016,0.183,-1.770,-10.620
0.026,0.052,1.008,-2.380,0.305,-8.301
0.027,0.043,0.993,-3.113,2.380,-5.798
0.035,0.073,0.975,-6.348,3.174,-2.808
0.031,0.091,0.959,-6.836,2.319,-0.610
0.038,0.108,0.949,-5.859,0.000,0.305

0.072,0.602,2.530,27.100,115.784,16.846
0.044,0.364,2.848,6.836,133.667,4.883
-0.106,0.070,2.969,-13.672,142.395,5.066
-0.187,-0.005,2.830,-26.855,133.972,22.095
-0.196,0.093,2.369,-27.893,103.333,47.852
-0.099,0.318,1.815,-10.559,49.194,57.983
-0.093,0.379,1.336,25.330,-9.399,36.377
-0.147,0.370,1.094,61.401,-60.669,0.977
-0.105,0.325,0.983,87.830,-99.426,-32.654
-0.032,0.182,1.038,96.497,-122.742,-63.599
0.092,-0.008,1.227,74.829,-133.362,-81.543
0.243,-0.246,1.440,31.006,-132.263,-83.740
0.302,-0.281,1.454,-21.790,-109.680,-62.805
0.352,-0.303,1.150,-50.720,-68.909,-36.743
0.365,-0.186,0.729,-72.449,-26.672,-6.653
0.369,-0.019,0.296,-63.843,2.808,21.362
0.297,0.152,0.048,-38.391,10.132,44.617
0.253,0.230,-0.072,-18.311,9.766,54.565
0.213,0.250,-0.093,-9.033,1.831,55.664
0.164,0.187,-0.021,-2.197,-12.451,51.331
0.103,0.111,0.057,2.380,-22.827,45.227
0.072,0.040,0.069,3.662,-23.926,39.185
0.079,-0.025,0.105,5.859,-20.508,34.668
0.090,-0.063,0.073,7.935,-16.113,29.968
0.132,-0.095,0.005,11.902,-13.428,27.100
0.187,-0.086,-0.008,24.597,-14.282,26.184
0.238,-0.058,-0.012,27.283,-15.747,24.658
0.239,-0.055,0.001,21.118,-22.644,18.616
0.212,-0.061,-0.021,27.466,-33.997,8.484
0.193,-0.082,-0.006,35.217,-46.143,-2.258
0.143,-0.123,0.039,42.114,-57.678,-12.695
0.093,-0.181,0.109,48.218,-65.430,-21.484
0.032,-0.234,0.165,50.293,-66.772,-26.978
0.018,-0.240,0.168,49.805,-63.538,-28.992
-0.059,-0.266,0.254,48.523,-64.575,-28.931
-0.074,-0.292,0.260,42.175,-56.702,-29.968
-0.075,-0.293,0.243,36.621,-43.152,-28.320
-0.077,-0.295,0.250,32.715,-32.898,-25.391
-0.080,-0.300,0.250,26.917,-22.583,-21.851
-0.087,-0.247,0.292,14.954,-13.550,-17.334
-0.076,-0.219,0.348,2.563,-7.629,-14.709
-0.073,-0.213,0.396,-8.362,-3.052,-14.099
-0.054,-0.169,0.425,-19.165,3.113,-12.451
-0.043,-0.089,0.459,-17.822,12.085,-14.587
-0.031,-0.120,0.482,-13.184,21.973,-21.301
-0.008,-0.075,0.534,-23.560,32.593,-22.217
0.021,-0.039,0.593,-22.705,43.335,-26.245
0.069,-0.068,0.652,-15.503,52.612,-30.396
0.093,-0.058,0.743,-13.977,57.617,-25.085
0.076,0.032,0.865,-6.287,55.786,-17.761
0.061,0.028,0.964,9.521,50.537,-19.653
0.032,0.005,1.082,14.038,45.227,-21.606
0.017,-0.038,1.244,20.325,42.053,-21.729
-0.042,-0.049,1.413,21.545,46.692,-19.226
-0.023,-0.040,1.497,20.813,55.725,-12.756
-0.136,0.034,1.614,20.081,60.120,-7.446
-0.160,-0.067,1.731,32.776,53.894,-17.212
-0.100,-0.057,1.760,10.315,59.753,-19.531
-0.072,-0.000,1.743,4.456,69.580,-18.494
-0.055,0.044,1.782,6.653,67.810,-19.714
-0.038,-0.007,1.870,-6.042,56.946,-22.522
0.032,0.009,1.923,-30.396,50.171,-17.700
0.075,0.062,1.921,-44.006,48.157,-9.827
0.094,0.078,1.908,-45.715,44.128,-4.150
0.125,0.132,1.869,-53.772,38.269,3.235
0.124,0.162,1.801,-54.688,32.593,8.911
0.094,0.182,1.721,-51.758,25.330,13.123
0.075,0.204,1.616,-49.622,18.555,14.954
0.051,0.221,1.507,-45.166,11.597,14.343
0.028,0.217,1.401,-40.222,3.784,11.597
0.015,0.194,1.294,-33.203,-3.601,8.362
0.011,0.182,1.197,-27.832,-10.742,5.676
0.002,0.165,1.115,-20.935,-17.822,3.174
0.001,0.153,1.052,-15.869,-23.621,1.526
0.007,0.141,1.005,-10.803,-28.137,-0.061
0.020,0.119,0.977,-6.836,-31.494,-1.526
0.040,0.099,0.955,-3.296,-33.447,-2.075
0.063,0.085,0.939,-0.549,-33.997,-1.526
0.069,0.073,0.916,1.343,-32.959,0.244
0.087,0.070,0.873,0.854,-29.846,2.075
0.100,0.068,0.834,-2.075,-26.855,3.723
0.097,0.063,0.818,-5.676,-24.231,4.944
0.083,0.049,0.801,-7.263,-20.813,5.554
0.070,0.024,0.791,-6.104,-17.273,5.737
0.046,0.007,0.799,-3.784,-14.526,5.920
0.016,-0.001,0.821,0.000,-13.000,5.981
-0.005,-0.008,0.833,3.540,-12.329,4.456
-0.019,-0.017,0.860,5.310,-13.306,1.892
-0.030,-0.034,0.901,6.042,-14.709,-0.977
-0.042,-0.046,0.927,4.822,-13.855,-3.357
-0.043,-0.040,0.955,0.122,-10.986,-6.165
-0.029,-0.040,0.990,-5.859,-8.118,-8.911
-0.018,-0.034,1.024,-10.681,-4.883,-11.108
-0.010,-0.022,1.036,-12.573,-2.258,-11.902
-0.005,-0.007,1.037,-12.573,-0.610,-11.963
0.000,0.025,1.030,-11.475,0.305,-11.475
0.031,0.033,1.008,-8.240,0.854,-11.108
0.060,0.040,1.015,-5.127,0.183,-7.507
0.041,0.060,0.998,3.296,-1.221,-3.479
0.024,0.052,0.994,7.812,-2.441,-2.197
0.011,0.057,0.993,7.996,-3.723,-0.977
0.001,0.052,0.996,8.301,-4.822,-1.221
0.006,0.034,1.009,4.639,-4.272,-1.770
0.009,0.046,1.035,1.099,-2.319,-0.061
0.031,0.072,1.058,-2.869,2.502,2.686
0.038,0.089,1.046,-11.292,10.620,3.967
-0.019,0.065,1.035,-20.752,17.090,3.296
-0.053,0.025,1.041,-22.156,20.264,2.319
-0.066,0.047,1.031,-21.301,23.926,3.235
-0.056,0.076,0.996,-25.574,30.029,3.845
-0.064,0.071,0.935,-29.907,36.560,2.441
-0.064,0.076,0.905,-26.367,37.537,0.732
-0.022,0.093,0.932,-22.156,32.959,-0.671
0.026,0.112,0.934,-19.653,27.832,-1.404
0.046,0.118,0.932,-16.296,22.156,-1.404
0.057,0.125,0.954,-11.658,16.235,-1.587
0.050,0.112,0.955,-9.888,11.658,-2.441
0.053,0.104,0.961,-8.728,6.226,-2.991
0.078,0.115,0.970,-7.202,-0.671,-3.296

-0.319,0.029,2.425,85.938,25.085,84.717
-0.291,-0.081,2.743,67.383,23.132,89.600
-0.331,-0.197,2.865,51.147,23.071,92.224
-0.330,-0.258,2.768,22.339,16.113,91.248
-0.288,-0.263,2.702,-28.320,-5.005,84.045
-0.203,-0.207,2.643,-75.317,-30.212,73.853
-0.120,-0.178,2.359,-105.774,-35.339,66.895
-0.013,-0.073,2.040,-136.414,-33.020,61.646
0.115,-0.002,1.749,-158.875,-32.288,56.091
0.210,0.041,1.405,-170.776,-30.579,54.565
0.222,0.155,1.116,-170.166,-23.926,60.486
0.245,0.260,0.793,-163.574,-16.113,68.726
0.187,0.374,0.456,-151.306,-12.268,74.097
0.109,0.429,0.190,-127.258,-14.587,69.031
0.084,0.492,0.058,-99.365,-19.531,55.786
0.095,0.488,0.001,-71.533,-29.419,38.147
0.133,0.448,-0.017,-46.082,-40.710,20.874
0.170,0.363,-0.057,-20.691,-48.279,9.399
0.157,0.310,-0.025,-0.305,-51.208,5.798
0.187,0.202,-0.062,9.583,-50.232,6.714
0.178,0.179,-0.063,10.315,-37.964,9.949
0.212,0.081,-0.172,18.311,-22.583,13.245
0.230,0.052,-0.157,18.738,-12.390,17.334
0.215,0.007,-0.109,27.161,-9.033,22.644
0.203,-0.005,-0.068,36.560,-7.080,24.353
0.194,-0.050,-0.035,45.166,-6.226,21.729
0.190,-0.062,0.023,50.415,-6.958,16.235
0.195,-0.088,0.031,54.626,-10.315,8.728
0.195,-0.104,0.001,58.228,-15.198,-0.427
0.174,-0.118,0.002,65.430,-21.667,-9.033
0.181,-0.147,0.017,73.181,-25.696,-16.052
0.180,-0.187,0.065,80.139,-29.785,-20.203
0.147,-0.240,0.164,88.257,-35.156,-22.644
0.125,-0.291,0.296,90.881,-37.964,-22.888
0.122,-0.360,0.452,85.571,-36.682,-21.790
0.118,-0.391,0.544,73.181,-29.358,-17.151
0.115,-0.381,0.564,58.167,-19.287,-9.888
0.112,-0.368,0.578,44.800,-12.268,-2.808
0.099,-0.351,0.573,33.203,-5.676,4.639
0.055,-0.298,0.518,22.705,4.517,13.000
0.005,-0.213,0.432,15.686,16.541,19.470
-0.104,-0.157,0.362,11.719,25.757,21.057
-0.097,-0.120,0.310,3.662,30.396,17.883
-0.105,-0.038,0.321,0.488,32.166,15.442
-0.165,0.018,0.397,7.202,35.767,9.094
-0.175,-0.030,0.460,14.526,39.307,-1.648
-0.145,-0.063,0.659,13.184,40.405,-9.705
-0.101,-0.096,0.877,13.672,46.509,-13.184
-0.054,-0.084,1.018,12.329,62.805,-13.123
-0.033,-0.052,1.110,9.766,80.505,-11.719
-0.050,-0.027,1.206,3.906,92.957,-9.705
-0.034,-0.026,1.209,-6.042,105.591,-8.423
-0.101,0.012,1.210,-11.719,115.295,-4.272
-0.054,0.040,1.184,-11.658,119.507,0.977
0.010,0.139,1.157,-3.296,115.967,7.202
0.045,0.200,1.238,8.484,102.722,7.446
0.127,0.213,1.329,20.996,90.576,4.089
0.189,0.137,1.469,37.903,76.843,-3.723
0.132,-0.108,1.704,40.100,63.232,-9.460
0.249,-0.066,1.788,15.808,63.171,5.432
0.309,0.091,1.822,-4.761,60.913,22.461
0.286,0.140,1.866,-13.184,52.795,24.475
0.228,0.067,1.881,-17.578,44.067,19.653
0.182,0.038,1.833,-28.076,37.842,21.851
0.163,0.082,1.726,-43.823,33.936,29.175
0.150,0.145,1.586,-55.237,29.846,34.973
0.132,0.172,1.460,-56.152,22.217,36.438
0.103,0.198,1.365,-51.331,12.878,35.400
0.063,0.182,1.286,-41.931,3.662,31.921
0.028,0.175,1.261,-32.349,-4.272,25.146
-0.020,0.132,1.236,-22.888,-10.071,16.296
-0.021,0.090,1.210,-17.517,-13.428,8.606
-0.016,0.093,1.165,-12.634,-14.893,3.906
0.000,0.099,1.126,-7.874,-17.212,0.061
0.025,0.085,1.080,-4.089,-19.897,-3.235
0.055,0.078,1.051,-2.258,-21.240,-5.371
0.096,0.065,1.009,-1.648,-20.447,-6.409
0.137,0.044,0.987,-0.916,-19.226,-6.287
0.175,0.037,0.979,1.648,-18.127,-3.967
0.196,0.027,0.978,4.028,-17.822,-0.854
0.197,0.006,1.001,5.798,-18.738,3.479
0.176,-0.003,1.013,7.080,-18.616,8.850
0.152,-0.011,1.005,5.615,-18.066,12.939
0.132,-0.020,0.995,2.686,-17.456,15.015
0.110,-0.022,0.980,-0.061,-15.930,15.503
0.097,-0.028,0.949,-2.747,-13.611,14.526
0.070,-0.028,0.925,-4.395,-12.390,12.207
0.065,-0.024,0.932,-5.005,-11.841,8.545
0.063,-0.021,0.920,-4.211,-9.705,4.028
0.068,-0.024,0.919,-2.625,-8.484,0.061
0.079,-0.014,0.912,-1.221,-7.385,-3.113
0.096,-0.005,0.925,-1.404,-7.996,-5.676
0.109,-0.001,0.946,-1.709,-8.484,-7.019
0.116,0.004,0.970,-1.526,-7.568,-6.958
0.121,0.016,0.976,-1.404,-5.676,-5.920
0.112,0.027,0.990,-3.296,-4.822,-4.150
0.071,-0.016,1.004,-6.470,-3.418,-2.258
0.124,0.054,1.002,-15.564,-0.793,2.136
0.128,0.086,0.997,-16.541,1.526,2.930
0.110,0.059,0.991,-12.573,2.197,0.244
0.084,0.052,0.996,-12.878,1.343,0.000
0.083,0.078,0.983,-15.503,1.343,1.465
0.072,0.096,0.971,-16.174,1.099,0.610
0.057,0.073,0.970,-14.221,0.305,-1.953
0.067,0.065,0.963,-13.000,-0.183,-3.052
0.068,0.073,0.973,-12.146,-0.122,-2.991
0.075,0.076,0.990,-10.193,0.977,-3.052
0.080,0.079,0.992,-6.897,2.930,-2.747
0.077,0.081,0.981,-2.991,4.272,-2.258
0.064,0.078,0.995,-0.610,3.662,-1.953
0.060,0.071,1.014,-0.488,3.296,-2.502
0.052,0.073,1.021,-0.549,4.211,-3.479
0.036,0.057,1.021,0.427,5.981,-5.188
0.045,0.038,1.017,-1.038,7.874,-8.728
0.069,0.047,1.001,-2.991,9.094,-11.047
0.153,0.057,0.999,-0.916,8.545,-12.512
0.138,0.105,0.978,5.005,7.690,-15.625
0.072,0.063,0.985,16.052,6.531,-21.545
0.060,0.003,0.982,21.484,4.089,-25.330

0.016,-0.090,2.824,57.007,34.302,10.071
0.011,-0.174,2.990,41.931,25.696,10.864
0.023,-0.274,3.091,16.174,-0.732,11.047
0.073,-0.266,2.985,-20.508,-26.917,15.015
0.141,-0.172,2.719,-60.791,-44.983,20.386
0.213,-0.045,2.432,-90.027,-59.509,24.353
0.308,0.003,2.083,-109.070,-62.317,23.254
0.353,0.113,1.727,-121.399,-62.561,27.039
0.384,0.192,1.397,-127.869,-67.261,32.227
0.385,0.241,1.107,-131.348,-70.435,36.987
0.367,0.278,0.846,-133.301,-73.059,43.579
0.334,0.301,0.582,-133.240,-74.707,49.011
0.272,0.312,0.331,-125.061,-76.111,52.612
0.208,0.312,0.108,-107.300,-79.102,52.368
0.166,0.341,-0.032,-83.008,-81.665,47.791
0.113,0.304,-0.017,-56.763,-87.402,41.321
0.101,0.249,-0.042,-38.025,-87.952,33.325
0.091,0.192,-0.071,-26.917,-83.618,26.428
0.077,0.141,-0.083,-16.052,-79.224,21.912
0.070,0.097,-0.103,-7.690,-72.754,20.325
0.060,0.061,-0.131,-2.441,-65.125,20.874
0.060,0.032,-0.198,2.625,-54.749,22.156
0.045,0.015,-0.236,11.108,-46.326,23.254
0.014,-0.008,-0.226,22.949,-41.687,22.766
-0.012,-0.034,-0.216,33.264,-37.231,18.677
-0.036,-0.058,-0.219,42.480,-32.898,12.085
-0.054,-0.091,-0.206,53.406,-32.654,3.052
-0.065,-0.122,-0.182,63.721,-35.034,-7.507
-0.062,-0.148,-0.162,73.792,-37.231,-18.616
-0.034,-0.163,-0.127,85.022,-38.025,-28.381
-0.018,-0.198,-0.062,96.191,-38.269,-35.278
-0.017,-0.220,0.009,105.896,-38.452,-38.574
-0.008,-0.289,0.143,113.037,-40.222,-42.175
0.000,-0.311,0.214,110.535,-30.945,-41.565
0.000,-0.322,0.271,104.919,-18.738,-36.987
-0.009,-0.336,0.360,100.220,-9.827,-31.067
-0.007,-0.344,0.420,91.858,0.427,-23.315
-0.011,-0.336,0.469,84.351,11.536,-14.038
-0.035,-0.290,0.492,77.026,23.193,-5.493
-0.106,-0.259,0.538,67.749,31.738,-4.822
-0.136,-0.252,0.571,50.903,40.039,-11.230
-0.147,-0.226,0.650,31.494,50.110,-17.700
-0.113,-0.207,0.713,13.611,64.636,-22.522
-0.080,-0.204,0.714,-1.770,85.571,-21.484
-0.069,-0.158,0.716,-12.573,102.173,-13.977
-0.055,-0.020,0.737,-15.503,108.704,-10.681
-0.018,0.003,0.808,-13.733,105.469,-18.921
-0.061,-0.012,0.910,-7.874,100.952,-29.419
-0.038,-0.066,1.044,-7.874,95.520,-33.142
0.040,-0.027,1.173,-18.555,92.041,-26.245
0.109,0.052,1.327,-28.381,90.759,-19.409
0.180,0.140,1.404,-29.785,95.764,-19.348
0.224,0.182,1.429,-19.836,98.389,-24.109
0.278,0.214,1.489,-12.268,91.736,-27.649
0.194,0.125,1.559,-4.028,85.144,-30.212
0.182,0.259,1.529,3.662,81.604,-24.780
0.214,0.030,1.633,9.521,64.514,-32.043
0.258,0.041,1.763,-9.277,55.725,-25.024
0.241,0.145,1.646,-17.822,70.068,-11.963
0.194,0.154,1.626,-16.541,69.397,-3.845
0.218,0.131,1.679,-21.484,51.575,-0.427
0.213,0.086,1.765,-29.968,37.170,1.526
0.169,0.127,1.706,-35.461,33.630,11.353
0.120,0.127,1.677,-40.039,25.513,19.348
0.061,0.130,1.646,-44.922,17.822,23.071
0.011,0.136,1.587,-46.265,11.108,24.536
-0.017,0.125,1.527,-49.133,4.150,23.376
-0.044,0.117,1.432,-50.110,1.343,20.996
-0.057,0.154,1.322,-46.936,-1.587,17.944
-0.042,0.133,1.298,-41.809,-12.329,13.062
-0.016,0.128,1.260,-36.621,-17.456,8.118
0.004,0.117,1.182,-27.954,-18.921,5.249
0.007,0.116,1.152,-19.287,-23.315,4.211
0.004,0.111,1.145,-13.489,-28.992,3.296
0.008,0.101,1.126,-10.437,-31.860,2.075
0.026,0.092,1.096,-10.132,-32.288,0.610
0.046,0.086,1.051,-11.047,-30.396,-1.099
0.062,0.090,1.006,-11.658,-27.954,-1.953
0.077,0.094,0.961,-13.123,-25.879,-2.991
0.096,0.087,0.897,-14.709,-23.743,-4.700
0.114,0.080,0.867,-16.724,-22.888,-5.737
0.119,0.072,0.855,-16.663,-22.888,-5.737
0.108,0.074,0.855,-14.282,-22.034,-4.211
0.094,0.070,0.855,-12.085,-19.531,-3.174
0.080,0.067,0.842,-11.230,-15.869,-2.686
0.068,0.069,0.828,-10.681,-11.963,-2.319
0.065,0.073,0.821,-11.169,-8.606,-2.441
0.067,0.076,0.822,-12.146,-5.432,-2.808
0.072,0.081,0.817,-12.329,-2.747,-3.174
0.077,0.083,0.817,-10.559,-0.610,-3.113
0.077,0.082,0.821,-8.301,0.916,-2.808
0.071,0.088,0.853,-5.554,1.770,-2.380
0.060,0.095,0.892,-2.869,2.441,-2.136
0.046,0.091,0.915,-2.136,2.747,-2.136
0.036,0.101,0.940,-1.526,2.991,-2.197
0.033,0.100,0.962,-1.648,3.479,-3.113
0.031,0.102,0.972,-3.540,4.150,-4.028
0.031,0.112,0.971,-4.211,5.371,-4.333
0.033,0.117,0.979,-4.639,5.859,-4.883
0.038,0.118,0.978,-4.395,5.798,-5.127
0.034,0.130,0.989,-3.357,5.493,-4.700
0.029,0.131,1.007,-2.075,4.944,-4.883
0.032,0.132,1.023,-3.235,5.127,-5.615
0.045,0.137,1.024,-5.920,5.981,-6.226
0.055,0.143,1.030,-6.958,6.409,-6.409
0.062,0.153,1.045,-6.714,5.188,-6.104
0.062,0.147,1.038,-6.897,3.967,-5.432
0.066,0.154,1.037,-6.653,2.991,-4.456
0.070,0.149,1.027,-5.737,2.808,-3.906
0.073,0.147,1.026,-4.028,2.136,-3.174
0.076,0.149,1.037,-2.686,0.610,-2.319
0.074,0.140,1.033,-3.113,-0.183,-1.526
0.068,0.143,1.027,-2.686,-0.732,-0.122
0.052,0.136,1.013,-2.441,-1.221,0.671
0.046,0.131,1.003,-2.869,-1.587,0.671
0.044,0.121,0.990,-3.540,-1.648,-0.183
0.045,0.117,0.983,-3.296,-1.953,-0.793
0.047,0.117,0.967,-3.113,-2.625,-1.282
0.054,0.115,0.969,-2.808,-3.296,-1.709

-0.014,0.117,2.530,34.729,16.846,18.738
0.008,0.056,2.654,31.311,10.925,19.531
0.017,0.002,2.677,25.269,-4.272,20.691
0.065,-0.008,2.574,10.803,-25.330,21.484
0.100,-0.030,2.383,-3.784,-44.312,21.973
0.134,-0.037,2.153,-13.428,-56.702,20.813
0.183,-0.059,1.834,-19.348,-61.157,18.250
0.156,-0.083,1.369,-26.367,-62.134,20.447
0.096,0.112,1.189,-63.293,-71.350,23.132
0.101,0.153,1.006,-74.829,-79.712,16.541
0.095,0.155,0.823,-76.416,-83.374,10.559
0.087,0.153,0.661,-82.275,-82.764,6.958
0.089,0.165,0.464,-86.670,-75.439,4.395
0.110,0.206,0.316,-85.144,-68.909,1.221
0.155,0.256,0.193,-76.721,-67.139,-1.465
0.158,0.262,0.138,-66.956,-70.129,-1.770
0.180,0.256,0.017,-61.340,-67.261,-2.014
0.192,0.239,-0.053,-51.514,-63.660,-1.343
0.187,0.207,-0.044,-32.593,-64.087,1.709
0.154,0.131,-0.001,-14.160,-64.453,6.470
0.105,0.065,0.021,-2.014,-61.584,12.268
0.065,0.026,0.032,5.737,-55.237,16.785
0.032,-0.013,0.090,13.672,-49.805,18.188
0.026,-0.053,0.153,19.775,-45.532,17.212
0.026,-0.095,0.198,22.400,-42.847,14.893
0.052,-0.136,0.220,22.339,-41.382,11.841
0.073,-0.173,0.258,21.179,-40.833,9.338
0.081,-0.180,0.255,18.250,-38.818,8.179
0.051,-0.189,0.208,16.296,-35.889,8.179
0.011,-0.157,0.159,20.203,-29.175,8.728
-0.042,-0.170,0.192,25.146,-20.447,7.446
-0.068,-0.159,0.208,26.062,-8.728,3.784
-0.089,-0.153,0.212,24.963,0.793,0.671
-0.120,-0.151,0.238,26.428,6.287,-2.686
-0.143,-0.128,0.240,26.917,14.771,-6.470
-0.155,-0.114,0.242,27.100,23.376,-11.780
-0.150,-0.100,0.262,29.175,29.175,-18.555
-0.139,-0.078,0.282,31.250,34.180,-25.696
-0.110,-0.057,0.286,32.349,40.771,-32.043
-0.068,-0.032,0.284,33.325,47.241,-36.865
-0.024,-0.003,0.308,36.987,54.688,-39.368
0.001,0.008,0.373,41.443,61.951,-39.368
0.031,0.009,0.433,42.236,68.054,-37.048
0.035,0.001,0.530,41.992,71.838,-34.424
0.046,-0.039,0.580,36.682,77.820,-28.931
0.036,0.028,0.719,26.306,83.618,-22.888
0.054,0.032,0.802,23.743,93.323,-21.851
0.089,0.064,0.831,18.860,104.431,-18.066
0.097,0.095,0.920,16.113,111.694,-13.123
0.139,0.102,0.981,15.930,117.737,-10.315
0.174,0.124,1.079,16.235,120.239,-8.362
0.230,0.118,1.215,17.395,116.272,-7.935
0.224,-0.012,1.424,16.357,107.849,-7.263
0.319,0.087,1.562,9.949,101.685,3.113
0.276,0.118,1.686,19.470,92.163,7.446
0.179,0.073,1.795,25.757,78.247,1.526
0.234,-0.057,1.948,15.869,59.448,-10.376
0.267,-0.018,1.987,-11.536,59.143,-8.728
0.250,0.068,1.864,-21.301,69.092,-2.747
0.231,0.063,1.823,-27.222,59.753,-1.648
0.218,0.101,1.831,-41.138,43.823,-0.427
0.208,0.125,1.777,-47.729,34.851,0.610
0.178,0.156,1.685,-48.706,29.297,3.784
0.140,0.191,1.593,-49.683,22.644,7.446
0.101,0.195,1.511,-52.124,15.503,8.789
0.112,0.206,1.426,-56.030,10.376,10.376
0.129,0.290,1.294,-54.321,5.127,12.024
0.105,0.233,1.276,-45.654,-7.751,9.155
0.106,0.203,1.247,-38.330,-14.526,7.263
0.105,0.216,1.177,-32.349,-16.785,9.277
0.093,0.200,1.123,-24.780,-20.081,10.071
0.072,0.196,1.102,-18.005,-25.513,11.047
0.063,0.180,1.084,-12.451,-30.579,11.353
0.064,0.139,1.060,-7.690,-34.241,10.010
0.062,0.110,1.028,-4.456,-36.194,9.583
0.057,0.097,1.001,-2.991,-35.889,9.216
0.068,0.095,0.960,-2.014,-33.691,7.751
0.076,0.089,0.931,-0.244,-31.616,5.676
0.085,0.086,0.913,1.465,-30.518,3.845
0.098,0.083,0.893,2.136,-28.809,1.648
0.106,0.076,0.886,2.136,-26.794,0.183
0.109,0.073,0.879,1.404,-24.292,-0.610
0.113,0.072,0.864,0.488,-21.362,-0.488
0.111,0.072,0.859,-0.854,-18.433,-0.122
0.105,0.069,0.865,-1.892,-15.808,0.000
0.103,0.066,0.860,-3.479,-12.451,0.000
0.103,0.064,0.860,-4.883,-9.033,0.000
0.103,0.066,0.859,-6.958,-5.859,-0.061
0.101,0.073,0.854,-8.118,-2.991,0.000
0.092,0.082,0.860,-8.118,-0.671,0.000
0.093,0.089,0.870,-8.301,0.977,-0.549
0.091,0.092,0.890,-7.996,2.197,-1.160
0.086,0.094,0.913,-7.019,2.930,-1.526
0.083,0.098,0.936,-6.897,3.357,-1.892
0.073,0.105,0.961,-7.568,3.235,-2.136
0.068,0.102,0.977,-9.033,3.235,-2.991
0.066,0.097,0.992,-10.620,3.540,-3.723
0.063,0.107,1.001,-10.803,3.784,-4.028
0.064,0.115,1.002,-10.437,3.906,-4.517
0.072,0.122,1.001,-10.925,3.479,-5.249
0.075,0.130,1.004,-11.108,2.869,-5.249
0.072,0.132,1.009,-9.644,1.831,-4.944
0.074,0.138,1.010,-8.728,0.977,-4.639
0.076,0.146,1.005,-7.935,0.610,-4.272
0.077,0.151,1.002,-7.141,-0.366,-3.723
0.077,0.154,1.007,-6.653,-1.526,-3.296
0.082,0.151,1.009,-5.920,-2.197,-3.296
0.083,0.152,1.005,-5.310,-2.563,-2.869
0.084,0.153,1.001,-5.005,-2.808,-2.258
0.083,0.150,0.998,-4.333,-2.930,-1.892
0.082,0.148,0.994,-3.174,-3.174,-1.160
0.076,0.145,0.992,-1.648,-3.479,-0.427
0.073,0.142,0.987,-0.610,-4.028,0.183
0.071,0.137,0.982,-0.244,-4.822,0.732
0.067,0.129,0.986,-0.061,-5.371,0.977
0.066,0.122,0.984,0.671,-5.066,1.282
0.068,0.118,0.973,0.793,-4.700,1.160
0.072,0.116,0.963,0.671,-4.578,1.221
0.076,0.116,0.954,1.099,-4.395,1.404

-0.001,0.349,2.327,23.926,33.386,17.029
-0.002,0.342,2.441,11.353,39.368,16.357
0.006,0.352,2.492,4.639,37.842,15.930
0.008,0.356,2.506,4.944,25.757,13.855
0.032,0.275,2.455,10.315,7.629,10.071
0.083,0.120,2.346,11.780,-13.123,8.850
0.131,0.024,2.142,1.160,-31.128,12.756
0.181,0.068,1.834,-16.052,-40.527,19.287
0.173,0.161,1.508,-24.536,-45.227,24.963
0.125,0.175,1.198,-11.414,-46.997,22.949
0.131,0.225,0.952,1.343,-50.964,17.151
0.165,0.256,0.693,-8.545,-62.012,9.399
0.190,0.228,0.620,-42.358,-78.735,-0.488
0.206,0.205,0.512,-52.429,-84.717,-5.188
0.156,0.190,0.376,-39.429,-81.665,-2.869
0.124,0.213,0.278,-35.095,-80.750,0.610
0.134,0.244,0.200,-38.696,-80.139,-0.244
0.172,0.249,0.075,-33.447,-78.552,-1.892
0.172,0.235,0.005,-22.095,-79.590,-0.732
0.143,0.200,-0.060,-6.104,-78.247,2.441
0.092,0.168,-0.112,3.967,-74.219,6.775
0.037,0.135,-0.139,11.353,-70.923,10.986
-0.018,0.080,-0.124,23.254,-66.833,12.817
-0.068,0.031,-0.093,34.912,-60.608,13.367
-0.084,-0.033,-0.028,43.579,-54.077,11.658
-0.063,-0.078,0.032,46.265,-45.349,8.667
-0.023,-0.112,0.065,44.189,-37.415,5.981
0.026,-0.136,0.072,39.734,-30.212,3.662
0.093,-0.132,0.047,35.278,-21.423,2.502
0.156,-0.167,0.048,35.400,-16.968,2.258
0.191,-0.175,0.046,36.438,-11.108,4.700
0.172,-0.194,0.041,40.283,-7.507,9.460
0.132,-0.213,0.078,46.692,-4.761,13.611
0.088,-0.222,0.107,49.377,-0.366,16.296
0.037,-0.218,0.141,50.964,3.296,17.395
-0.017,-0.224,0.141,53.467,7.202,17.517
-0.076,-0.230,0.164,56.946,10.498,16.602
-0.131,-0.140,0.150,58.533,15.503,10.071
-0.206,-0.188,0.253,45.166,19.897,-7.385
-0.231,-0.153,0.402,30.701,27.710,-16.785
-0.208,-0.166,0.493,28.137,43.640,-22.095
-0.176,-0.185,0.579,19.348,63.721,-25.085
-0.115,-0.174,0.660,7.080,83.130,-21.851
-0.034,-0.069,0.681,-4.089,99.060,-17.578
0.011,-0.102,0.784,-10.071,101.807,-20.325
0.075,-0.020,0.878,-14.587,100.586,-19.104
0.110,0.005,1.008,-8.911,97.534,-19.897
0.146,-0.000,1.109,-5.310,96.130,-22.156
0.152,-0.035,1.230,-10.010,94.727,-21.057
0.227,0.007,1.320,-24.353,93.079,-13.306
0.266,0.071,1.411,-31.250,87.830,-5.310
0.276,0.125,1.505,-32.288,78.979,-2.625
0.268,0.107,1.599,-30.701,72.632,-4.578
0.259,0.229,1.501,-18.066,74.768,-5.188
0.167,0.025,1.573,2.930,59.509,-13.306
0.187,-0.001,1.777,-12.817,44.312,-15.198
0.216,0.080,1.739,-28.748,53.589,-8.301
0.187,0.078,1.672,-22.400,60.059,-4.150
0.156,0.080,1.708,-23.560,49.500,-0.732
0.145,0.104,1.719,-34.058,39.673,2.991
0.138,0.120,1.642,-39.856,35.522,6.226
0.120,0.146,1.546,-42.236,30.090,10.193
0.113,0.172,1.468,-44.312,21.790,13.062
0.111,0.191,1.391,-44.189,11.902,15.137
0.100,0.189,1.335,-40.710,1.953,17.090
0.076,0.178,1.276,-35.339,-5.127,18.616
0.043,0.174,1.202,-27.588,-8.850,19.470
0.026,0.173,1.129,-20.630,-12.329,18.738
0.026,0.166,1.098,-14.221,-18.372,16.663
0.015,0.154,1.110,-8.057,-25.024,14.465
-0.000,0.130,1.127,-0.488,-29.602,11.658
-0.013,0.097,1.132,4.639,-32.349,8.789
-0.021,0.075,1.124,6.775,-33.508,6.714
-0.028,0.057,1.114,5.737,-32.898,4.883
-0.032,0.049,1.098,4.639,-30.640,3.479
-0.018,0.055,1.064,1.892,-26.672,1.648
0.011,0.063,1.033,-2.075,-23.254,-0.854
0.046,0.061,1.010,-5.493,-21.484,-2.991
0.074,0.047,0.990,-6.470,-20.569,-4.639
0.091,0.039,0.959,-5.005,-18.677,-4.822
0.098,0.037,0.923,-3.418,-15.808,-4.211
0.098,0.047,0.904,-1.892,-13.367,-3.845
0.085,0.050,0.910,0.793,-12.329,-3.662
0.076,0.051,0.924,1.953,-11.841,-3.906
0.068,0.052,0.927,0.244,-10.681,-3.967
0.066,0.052,0.920,-2.930,-8.362,-4.333
0.078,0.056,0.908,-6.470,-5.920,-4.639
0.078,0.066,0.918,-9.155,-4.578,-4.211
0.079,0.067,0.925,-9.216,-3.784,-3.357
0.070,0.075,0.940,-9.094,-3.235,-2.502
0.057,0.079,0.960,-8.423,-2.625,-1.953
0.048,0.082,0.972,-7.690,-2.197,-2.014
0.043,0.087,0.983,-7.507,-2.136,-2.258
0.036,0.094,0.982,-8.057,-1.892,-2.502
0.040,0.093,0.979,-7.874,-2.136,-2.625
0.033,0.101,0.985,-7.935,-2.930,-2.319
0.026,0.103,0.988,-7.324,-3.418,-2.258
0.023,0.104,0.991,-7.263,-3.723,-2.380
0.022,0.103,0.994,-7.385,-3.784,-2.625
0.020,0.103,0.997,-6.836,-3.601,-2.869
0.017,0.102,0.992,-5.615,-3.235,-2.991
0.016,0.103,0.981,-5.371,-2.747,-3.357
0.016,0.104,0.978,-5.188,-2.930,-3.723
0.017,0.105,0.982,-4.272,-3.357,-4.150
0.016,0.105,0.991,-3.235,-3.906,-4.456
0.013,0.097,0.998,-2.808,-4.028,-5.249
0.028,0.104,0.998,-3.601,-3.723,-5.127
0.031,0.114,0.997,-3.723,-3.540,-4.822
0.042,0.122,0.993,-3.967,-3.601,-4.883
0.048,0.127,0.988,-4.211,-3.601,-5.310
0.059,0.123,0.980,-3.845,-3.540,-5.554
0.070,0.131,0.967,-4.333,-3.784,-4.761
0.085,0.135,0.950,-3.540,-3.967,-4.150
0.079,0.134,0.954,-1.465,-4.883,-3.479
0.087,0.121,0.951,-0.183,-5.310,-2.991
0.086,0.122,0.960,0.305,-5.737,-1.831
0.071,0.114,0.966,1.587,-5.920,-0.183
0.057,0.111,0.974,1.953,-5.432,0.977
0.045,0.107,0.980,0.916,-4.700,1.892

-0.289,-0.026,2.838,89.417,10.986,17.212
-0.359,-0.155,2.948,84.351,6.714,20.081
-0.333,-0.164,2.796,58.777,-3.967,21.606
-0.245,-0.118,2.605,17.639,-24.475,15.808
-0.146,-0.186,2.331,-7.629,-44.312,3.906
-0.047,-0.240,1.960,-3.052,-55.786,-2.197
-0.046,-0.194,1.674,7.019,-65.063,0.854
-0.061,-0.197,1.448,5.859,-68.176,7.996
0.006,-0.020,1.181,-9.399,-64.209,20.264
0.105,0.167,0.914,-18.127,-65.125,19.043
0.136,0.391,0.831,-52.185,-73.669,2.930
0.214,0.170,0.819,-82.214,-82.153,-24.963
0.313,0.109,0.648,-89.355,-75.134,-31.250
0.358,0.182,0.455,-97.717,-65.796,-17.700
0.350,0.201,0.277,-93.628,-62.927,-4.761
0.356,0.227,0.056,-86.975,-56.213,5.432
0.333,0.251,-0.089,-72.937,-52.917,15.137
0.297,0.234,-0.099,-50.720,-56.335,22.400
0.245,0.159,-0.078,-31.555,-58.350,27.466
0.187,0.091,-0.067,-20.447,-55.908,31.128
0.146,0.038,-0.044,-12.390,-49.744,33.386
0.105,-0.008,-0.027,-6.409,-42.358,34.302
0.067,-0.052,-0.016,-1.160,-36.926,34.424
0.040,-0.088,-0.037,0.732,-29.846,33.081
0.000,-0.114,-0.067,2.869,-22.461,30.640
-0.026,-0.146,-0.090,7.202,-17.883,26.184
-0.055,-0.172,-0.111,12.573,-14.038,20.813
-0.081,-0.169,-0.101,20.325,-8.606,15.686
-0.092,-0.170,-0.066,28.381,-2.808,11.108
-0.111,-0.193,0.002,33.386,0.977,6.897
-0.136,-0.198,0.004,33.936,7.629,3.967
-0.168,-0.166,-0.012,35.339,16.235,0.549
-0.182,-0.141,0.003,39.368,23.376,-3.662
-0.179,-0.123,0.020,43.213,29.236,-10.193
-0.160,-0.111,0.020,46.936,33.386,-17.578
-0.143,-0.122,0.057,50.842,33.569,-23.987
-0.140,-0.163,0.123,52.063,33.508,-26.672
-0.106,-0.136,0.270,45.288,36.316,-26.794
-0.043,-0.138,0.461,42.053,42.480,-27.466
0.039,-0.033,0.596,42.603,54.504,-31.372
0.027,-0.159,0.786,45.105,62.378,-45.044
0.051,-0.288,0.951,31.860,71.228,-48.523
0.083,-0.303,1.116,13.611,84.290,-33.325
0.075,-0.269,1.230,0.122,103.027,-12.207
0.064,-0.127,1.273,-9.277,119.873,0.916
0.073,-0.048,1.244,-12.573,130.859,-1.770
0.096,-0.006,1.237,-18.616,128.418,-10.620
0.083,-0.045,1.288,-27.832,120.972,-17.151
0.177,0.065,1.295,-43.091,114.258,-8.911
0.231,0.218,1.295,-48.096,106.140,-2.258
0.267,0.280,1.324,-40.161,92.834,-3.845
0.284,0.274,1.425,-28.931,73.669,-9.155
0.224,0.217,1.578,-14.648,56.335,-14.099
0.165,0.230,1.555,-1.221,51.025,-13.977
0.104,0.105,1.589,4.089,36.621,-16.724
0.153,0.061,1.696,-25.879,28.198,-13.550
0.166,0.183,1.522,-36.926,45.715,-4.517
0.125,0.197,1.413,-33.691,46.753,-0.488
0.118,0.188,1.447,-40.527,31.433,1.099
0.109,0.197,1.440,-43.274,22.339,3.296
0.086,0.148,1.432,-31.616,14.282,3.967
0.055,0.134,1.445,-31.982,5.188,7.812
0.010,0.149,1.423,-33.508,1.282,11.047
-0.008,0.102,1.390,-29.907,-2.014,8.972
0.000,0.096,1.364,-30.518,-5.005,7.202
0.007,0.106,1.336,-30.640,-8.240,7.812
0.016,0.098,1.298,-28.809,-10.864,6.714
0.026,0.089,1.272,-27.405,-14.832,5.249
0.036,0.078,1.257,-22.156,-20.203,4.028
0.045,0.130,1.199,-10.803,-26.733,0.977
0.008,0.043,1.212,0.916,-33.691,-6.165
0.007,0.028,1.187,-1.831,-34.058,-4.883
0.004,0.047,1.112,-3.357,-30.762,-2.441
0.006,0.042,1.059,-2.380,-27.954,-2.563
0.030,0.065,1.008,-3.784,-25.024,-3.296
0.061,0.083,0.960,-4.272,-21.790,-5.798
0.084,0.063,0.933,-3.845,-19.897,-8.179
0.104,0.063,0.911,-5.005,-18.066,-6.775
0.117,0.079,0.889,-6.042,-16.602,-4.456
0.121,0.078,0.885,-4.150,-15.991,-3.174
0.115,0.073,0.894,-1.953,-15.930,-2.197
0.096,0.075,0.898,-0.549,-14.832,-0.977
0.077,0.074,0.893,-1.160,-12.756,-0.061
0.057,0.075,0.894,-3.235,-10.376,0.244
0.053,0.074,0.884,-6.836,-7.141,-0.671
0.057,0.079,0.866,-8.728,-3.967,-1.526
0.060,0.086,0.867,-8.667,-2.625,-1.709
0.061,0.095,0.897,-7.324,-2.258,-1.770
0.058,0.093,0.926,-6.287,-1.526,-1.648
0.046,0.094,0.939,-4.883,0.244,-1.160
0.047,0.089,0.943,-4.761,2.563,-1.221
0.037,0.095,0.964,-4.333,3.662,-0.977
0.034,0.087,0.963,-2.808,4.272,-1.160
0.036,0.099,0.982,-4.333,4.272,-1.160
0.038,0.102,0.989,-6.287,3.906,-1.221
0.034,0.106,0.980,-6.775,3.845,-1.099
0.034,0.107,0.982,-6.409,2.502,-0.793
0.031,0.109,0.999,-5.371,0.671,-0.732
0.032,0.103,1.008,-4.456,0.000,-1.221
0.032,0.096,1.016,-4.028,-0.183,-1.404
0.033,0.102,1.025,-3.784,-0.488,-1.099
0.036,0.102,1.031,-3.845,-0.916,-0.854
0.031,0.101,1.032,-3.601,-1.160,-0.671
0.029,0.104,1.028,-3.052,-1.038,-0.366
0.031,0.107,1.018,-3.479,-1.221,-0.427
0.035,0.109,1.012,-3.662,-1.953,-0.732
0.040,0.107,1.012,-3.235,-2.441,-1.038
0.045,0.106,1.005,-2.930,-2.808,-0.977
0.049,0.105,0.991,-2.686,-3.113,-0.671
0.052,0.099,0.979,-1.648,-3.662,-0.244
0.053,0.094,0.976,-0.793,-4.761,0.305
0.049,0.087,0.978,-0.061,-5.615,0.916
0.037,0.084,0.973,0.916,-5.798,1.648
0.029,0.086,0.976,0.916,-5.432,1.831
0.027,0.083,0.974,-0.549,-4.761,1.282
0.029,0.081,0.964,-1.343,-3.540,0.549
0.033,0.087,0.951,-2.625,-2.502,0.061
0.039,0.090,0.944,-3.479,-1.526,-0.244
0.046,0.090,0.934,-3.784,-0.488,-0.183

-0.091,0.020,2.391,38.452,-20.325,19.287
-0.069,-0.010,2.300,27.344,-38.452,12.390
-0.027,-0.022,2.135,15.930,-53.162,5.615
0.062,-0.027,1.942,1.709,-63.599,-2.319
0.149,-0.055,1.745,-9.521,-70.984,-7.812
0.210,-0.128,1.512,-15.015,-73.425,-8.240
0.218,-0.158,1.237,-18.188,-64.880,-0.732
0.263,0.094,0.996,-37.109,-53.528,17.456
0.300,0.228,0.768,-41.077,-49.072,20.813
0.289,0.173,0.580,-42.175,-53.772,14.404
0.295,0.178,0.401,-61.401,-64.331,15.686
0.300,0.176,0.318,-80.688,-74.280,20.325
0.267,0.204,0.135,-75.073,-72.693,26.733
0.206,0.209,0.020,-65.491,-70.435,32.349
0.180,0.226,-0.114,-56.580,-64.880,33.569
0.154,0.226,-0.195,-41.321,-62.561,32.593
0.131,0.185,-0.200,-22.217,-63.171,30.090
0.097,0.134,-0.183,-4.761,-64.575,28.625
0.050,0.076,-0.163,10.132,-64.880,27.832
-0.011,0.027,-0.136,23.132,-61.218,27.161
-0.041,-0.018,-0.134,32.410,-54.932,24.292
-0.053,-0.050,-0.121,39.124,-49.316,19.104
-0.046,-0.074,-0.104,43.640,-45.532,12.817
-0.029,-0.110,-0.105,48.340,-41.626,5.188
-0.013,-0.130,-0.107,52.246,-37.537,-2.380
-0.001,-0.151,-0.081,57.678,-35.278,-9.460
0.002,-0.193,-0.015,62.805,-34.241,-16.113
0.002,-0.255,0.052,67.261,-31.616,-21.118
-0.030,-0.291,0.132,68.359,-27.832,-22.339
-0.058,-0.320,0.228,60.974,-24.353,-22.095
-0.081,-0.355,0.322,50.659,-16.418,-21.484
-0.105,-0.371,0.381,41.504,-4.150,-19.043
-0.144,-0.382,0.413,32.349,10.864,-15.564
-0.162,-0.338,0.444,22.400,29.846,-11.658
-0.195,-0.180,0.447,19.226,50.964,-13.123
-0.258,-0.259,0.451,19.958,71.411,-25.391
-0.236,-0.255,0.469,12.878,90.149,-29.297
-0.229,-0.185,0.557,2.197,105.103,-24.841
-0.186,-0.164,0.595,-4.578,121.704,-19.592
-0.145,-0.064,0.606,-3.052,136.902,-14.465
-0.095,-0.036,0.716,-3.784,143.555,-17.212
-0.010,-0.045,0.861,-8.789,146.973,-23.682
0.039,-0.031,1.003,-14.038,151.489,-27.771
0.117,-0.069,1.126,-24.414,151.978,-25.085
0.249,0.044,1.200,-34.363,146.545,-13.733
0.312,0.219,1.283,-29.785,133.118,-8.667
0.313,0.154,1.419,-5.005,114.990,-14.526
0.174,0.063,1.567,14.160,98.816,-21.912
0.238,-0.048,1.751,11.108,82.947,-30.579
0.280,-0.002,1.833,-12.451,83.191,-26.672
0.306,0.076,1.751,-22.583,91.736,-20.752
0.305,0.081,1.730,-30.396,83.191,-18.127
0.303,0.109,1.789,-42.114,66.101,-15.320
0.344,0.100,1.642,-49.622,58.228,-12.817
0.246,0.172,1.666,-40.894,37.170,-4.944
0.222,0.157,1.736,-51.819,6.592,-2.258
0.258,0.193,1.757,-64.941,-5.371,-1.587
0.255,0.276,1.606,-62.134,-6.958,-2.258
0.190,0.203,1.531,-45.349,-16.479,-5.798
0.141,0.158,1.537,-43.152,-26.001,-6.836
0.100,0.154,1.436,-39.490,-20.386,-3.235
0.063,0.117,1.328,-33.325,-17.334,2.075
0.038,0.117,1.319,-31.860,-19.531,8.362
0.023,0.119,1.249,-28.442,-17.395,12.146
0.035,0.129,1.211,-24.780,-19.897,15.015
0.026,0.128,1.180,-18.616,-22.827,15.198
0.012,0.101,1.161,-11.230,-27.405,13.672
0.016,0.081,1.142,-10.132,-31.128,11.902
0.018,0.068,1.106,-10.864,-31.433,9.521
0.025,0.056,1.055,-12.268,-29.846,6.226
0.033,0.054,0.995,-12.939,-27.100,3.052
0.050,0.058,0.931,-13.062,-26.306,-0.122
0.074,0.062,0.888,-12.939,-28.076,-2.563
0.095,0.060,0.870,-12.573,-30.762,-4.211
0.109,0.063,0.846,-10.193,-30.884,-4.761
0.116,0.067,0.819,-7.324,-29.053,-4.639
0.126,0.067,0.794,-5.188,-26.306,-3.906
0.130,0.069,0.779,-4.089,-22.522,-3.174
0.132,0.071,0.770,-2.686,-18.188,-2.380
0.131,0.073,0.764,-2.136,-14.465,-1.282
0.121,0.076,0.763,-1.465,-11.658,0.366
0.101,0.080,0.771,-0.183,-9.521,2.136
0.088,0.077,0.780,0.305,-6.592,2.808
0.070,0.077,0.806,-0.244,-4.089,3.052
0.050,0.077,0.826,-0.122,-1.953,2.625
0.036,0.081,0.852,-0.305,-0.061,1.892
0.032,0.080,0.882,-1.465,1.709,0.122
0.035,0.079,0.906,-3.296,3.601,-1.282
0.036,0.081,0.926,-3.540,4.761,-1.770
0.031,0.084,0.950,-3.418,5.493,-1.770
0.029,0.087,0.974,-3.601,6.165,-2.014
0.027,0.097,0.990,-3.418,6.897,-2.258
0.028,0.098,1.003,-3.723,6.836,-2.808
0.032,0.106,1.022,-4.211,6.592,-3.174
0.036,0.112,1.036,-4.089,6.348,-3.479
0.041,0.118,1.041,-4.272,5.981,-3.845
0.054,0.120,1.042,-4.700,5.493,-3.967
0.063,0.125,1.048,-4.822,4.700,-3.540
0.067,0.125,1.047,-4.395,4.395,-2.930
0.067,0.129,1.046,-4.517,4.150,-2.075
0.066,0.129,1.038,-4.395,3.784,-1.404
0.065,0.128,1.028,-3.906,3.174,-0.610
0.057,0.132,1.025,-3.723,2.563,0.305
0.051,0.128,1.020,-2.625,2.502,0.854
0.047,0.130,1.012,-1.892,2.014,0.916
0.045,0.125,1.006,-1.099,1.770,0.610
0.052,0.118,1.001,0.305,1.221,0.244
0.082,0.121,0.984,2.686,0.122,0.244
0.046,0.112,0.980,7.263,-0.977,-0.488
0.034,0.091,0.985,8.362,-2.380,-2.014
0.039,0.068,0.984,5.920,-3.052,-2.808
0.048,0.070,0.972,3.845,-2.441,-2.319
0.063,0.075,0.960,2.136,-1.709,-1.892
0.065,0.075,0.956,2.075,-1.953,-1.709
0.066,0.072,0.950,2.747,-1.953,-1.587
0.065,0.070,0.952,2.075,-1.465,-1.465
0.060,0.066,0.940,1.099,-0.488,-1.465
0.050,0.062,0.937,0.000,-0.183,-1.160
0.056,0.059,0.932,-1.831,-0.061,-0.732

-0.136,-0.012,2.568,26.733,19.104,31.067
-0.179,-0.018,2.514,18.860,18.677,32.532
-0.174,0.070,2.433,2.075,5.371,29.663
-0.079,0.085,2.197,-15.259,-12.573,18.738
0.003,0.082,1.923,-24.597,-32.715,5.127
0.065,0.085,1.717,-29.602,-59.326,-4.456
0.088,0.082,1.591,-31.311,-85.083,-11.475
0.119,0.049,1.457,-30.640,-102.539,-17.639
0.159,-0.087,1.331,-34.973,-114.563,-15.015
0.217,-0.052,1.172,-41.321,-121.399,-4.395
0.229,0.033,1.052,-38.635,-126.770,0.549
0.241,0.052,0.911,-37.170,-126.526,-2.014
0.249,-0.013,0.781,-37.354,-120.667,-7.324
0.265,-0.030,0.592,-35.645,-108.521,-6.775
0.275,0.025,0.434,-26.733,-101.501,0.366
0.280,0.131,0.155,-20.508,-94.238,5.005
0.275,0.253,0.062,-48.767,-95.398,3.296
0.292,0.208,-0.018,-67.627,-98.877,-3.174
0.293,0.213,-0.092,-61.218,-98.145,-3.357
0.278,0.187,-0.115,-46.448,-97.839,-1.282
0.236,0.170,-0.146,-32.043,-95.032,3.235
0.185,0.150,-0.190,-20.874,-89.294,8.789
0.121,0.126,-0.229,-9.155,-81.909,12.695
0.060,0.089,-0.302,2.930,-73.242,14.709
0.001,0.059,-0.365,15.808,-65.063,13.428
-0.036,0.027,-0.396,28.564,-58.105,9.705
-0.058,-0.006,-0.407,40.222,-50.049,5.127
-0.078,-0.060,-0.393,50.964,-38.818,2.686
-0.099,-0.114,-0.340,60.608,-24.475,2.502
-0.129,-0.146,-0.284,66.467,-6.653,5.066
-0.159,-0.177,-0.235,67.444,12.878,8.484
-0.183,-0.218,-0.198,66.040,32.288,11.475
-0.226,-0.216,-0.098,58.594,49.316,14.709
-0.208,-0.224,-0.065,44.067,66.650,18.494
-0.212,0.021,-0.019,44.617,70.801,10.376
-0.302,-0.220,0.211,56.274,56.885,-30.945
-0.228,-0.282,0.293,23.926,66.772,-54.565
-0.167,-0.248,0.298,23.682,78.552,-64.819
-0.149,-0.268,0.501,39.734,78.613,-76.172
-0.079,-0.242,0.707,36.255,84.839,-82.825
-0.027,-0.323,0.887,38.818,93.567,-88.196
0.000,-0.462,1.110,39.795,99.670,-81.177
0.047,-0.438,1.311,29.785,109.863,-55.176
0.089,-0.196,1.450,31.921,120.544,-29.297
0.111,-0.126,1.588,38.025,125.244,-25.085
0.163,-0.142,1.655,26.733,130.371,-29.297
0.186,-0.170,1.685,11.292,135.376,-23.743
0.261,0.041,1.690,-12.085,134.277,-6.226
0.261,0.100,1.697,-24.109,127.319,0.305
0.289,0.136,1.661,-33.325,119.629,6.836
0.296,0.249,1.612,-37.109,109.802,15.503
0.248,0.301,1.583,-32.043,96.680,16.541
0.188,0.249,1.522,-25.757,85.022,11.047
0.106,0.188,1.493,-22.339,73.608,9.583
0.063,0.211,1.531,-25.269,60.486,13.855
0.051,0.218,1.469,-22.461,55.603,16.113
-0.025,0.298,1.424,-10.010,46.082,17.395
-0.047,0.098,1.514,-5.249,27.344,4.700
0.015,0.160,1.451,-22.888,26.001,6.165
0.008,0.151,1.409,-18.555,21.484,9.644
0.005,0.128,1.406,-17.578,15.625,10.803
-0.001,0.126,1.385,-20.081,10.803,14.343
-0.009,0.113,1.363,-19.348,5.554,17.578
-0.020,0.094,1.344,-18.616,0.122,19.775
-0.047,0.087,1.333,-16.846,-5.249,21.362
-0.073,0.072,1.316,-16.235,-10.376,21.545
-0.102,0.078,1.301,-14.832,-15.137,20.569
-0.130,0.053,1.286,-12.085,-19.897,16.907
-0.117,0.048,1.249,-12.146,-21.667,11.841
-0.081,0.069,1.169,-12.390,-21.179,6.836
-0.039,0.074,1.100,-10.437,-22.522,1.831
0.011,0.067,1.036,-7.446,-24.170,-2.625
0.057,0.065,0.973,-2.014,-24.353,-5.310
0.093,0.060,0.926,5.127,-24.353,-6.775
0.109,0.058,0.917,11.719,-24.719,-6.775
0.116,0.051,0.920,17.212,-24.658,-6.287
0.127,0.051,0.928,20.874,-23.926,-5.615
0.129,0.039,0.924,22.034,-20.935,-5.310
0.130,0.008,0.927,21.851,-17.212,-5.554
0.134,0.008,0.916,17.517,-11.963,-4.822
0.125,-0.000,0.883,14.893,-5.981,-3.784
0.107,-0.001,0.865,12.146,-3.296,-3.052
0.128,0.021,0.848,9.460,-2.319,-3.235
0.086,-0.005,0.858,12.451,-1.587,-5.066
0.055,-0.029,0.850,13.794,1.038,-5.493
0.049,-0.034,0.857,10.254,3.845,-3.906
0.034,-0.030,0.900,7.019,6.836,-0.916
0.019,-0.009,0.922,4.456,11.292,1.648
0.019,-0.001,0.935,-0.854,15.442,1.709
0.029,-0.001,0.948,-4.639,18.799,0.854
0.044,0.011,0.971,-6.409,20.813,0.610
0.057,0.023,0.995,-6.531,22.095,-0.244
0.061,0.030,1.006,-7.202,24.048,-1.038
0.068,0.026,1.009,-8.362,26.184,-1.648
0.069,0.043,0.999,-7.874,28.198,-1.526
0.065,0.052,0.991,-5.005,27.588,-1.648
0.068,0.045,1.004,-3.784,23.682,-2.808
0.081,0.057,1.002,-5.432,19.348,-3.662
0.092,0.064,1.000,-5.127,14.282,-4.578
0.098,0.052,1.000,-4.272,9.949,-5.981
0.105,0.052,1.002,-3.357,5.737,-5.737
0.097,0.047,1.011,-1.221,2.075,-4.944
0.089,0.035,1.019,0.183,-0.793,-4.150
0.104,0.030,1.017,0.122,-2.930,-2.808
0.116,0.027,1.019,1.282,-4.333,-0.366
0.103,0.040,1.011,4.761,-5.188,3.540
0.093,0.032,1.009,6.409,-6.165,5.737
0.092,0.027,1.002,5.981,-6.409,6.897
0.071,0.023,0.995,4.822,-5.798,7.324
0.076,0.018,0.979,1.892,-6.287,6.836
0.088,0.014,0.983,-0.977,-8.789,6.287
0.079,0.010,0.971,-1.587,-10.132,5.859
0.067,0.004,0.959,-1.221,-10.986,4.639
0.064,-0.004,0.959,-2.686,-12.329,2.625
0.079,-0.022,0.950,-5.371,-13.000,1.221
0.078,-0.011,0.940,-6.409,-12.878,2.075
0.067,-0.017,0.936,-5.188,-13.062,2.991
0.059,-0.014,0.945,-5.920,-13.489,4.395
0.057,-0.015,0.949,-7.751,-12.207,5.371

-0.094,0.072,2.667,15.869,9.766,54.138
-0.082,0.095,2.690,1.953,-9.277,52.856
-0.077,0.051,2.558,-10.559,-33.569,43.945
-0.072,-0.010,2.321,-26.184,-58.228,32.593
-0.127,-0.068,2.124,-37.720,-76.721,23.804
-0.022,-0.193,1.824,-54.260,-81.543,21.057
0.076,-0.092,1.488,-61.584,-81.360,36.682
0.084,0.029,1.193,-50.720,-82.764,49.500
0.069,0.075,0.936,-47.058,-83.740,49.255
0.036,0.054,0.740,-42.236,-84.351,41.809
0.049,0.087,0.595,-37.170,-84.167,34.546
0.059,0.076,0.463,-28.076,-83.557,27.283
0.082,0.137,0.278,-18.127,-81.970,20.935
0.058,0.276,0.155,-22.705,-86.975,9.338
0.079,0.167,0.115,-36.499,-92.407,-8.667
0.097,0.187,-0.034,-29.175,-87.158,-13.977
0.083,0.212,-0.130,-15.747,-82.703,-13.794
0.083,0.183,-0.158,-2.747,-81.604,-15.320
0.065,0.158,-0.149,9.460,-80.383,-14.282
0.036,0.106,-0.141,20.569,-76.904,-11.536
0.014,0.046,-0.109,30.518,-70.679,-9.399
0.013,-0.004,-0.037,38.513,-63.538,-8.972
0.014,-0.051,0.042,43.030,-55.786,-9.460
0.017,-0.085,0.100,42.847,-47.974,-10.498
0.048,-0.085,0.125,37.903,-38.391,-12.024
0.108,-0.116,0.175,31.189,-28.870,-13.733
0.177,-0.108,0.176,22.583,-15.015,-11.169
0.216,-0.117,0.200,17.761,-5.188,-4.700
0.210,-0.120,0.205,12.756,4.883,5.188
0.161,-0.127,0.203,10.559,16.174,17.090
0.082,-0.141,0.215,10.559,27.527,27.344
-0.002,-0.142,0.235,12.329,38.269,32.715
-0.066,-0.145,0.296,15.137,47.058,33.386
-0.108,-0.165,0.375,18.311,52.856,29.114
-0.151,-0.178,0.450,19.226,56.519,23.071
-0.178,-0.162,0.477,16.052,63.538,16.052
-0.182,-0.134,0.519,12.085,70.862,7.324
-0.137,-0.109,0.566,5.981,77.515,-2.014
-0.072,-0.084,0.593,-1.160,83.679,-8.911
-0.015,-0.017,0.641,-7.690,89.539,-12.085
0.027,0.016,0.655,-4.639,95.581,-12.329
0.064,0.015,0.765,-0.488,95.642,-11.169
0.095,0.025,0.859,4.211,96.863,-6.897
0.092,0.008,0.989,7.996,98.877,-1.953
0.108,0.021,1.067,7.507,101.563,2.747
0.111,0.019,1.101,7.202,103.821,6.897
0.125,0.016,1.156,4.639,101.685,11.780
0.130,0.018,1.244,1.648,97.290,16.113
0.113,0.030,1.348,0.488,92.468,18.921
0.021,-0.066,1.454,-1.343,89.539,19.836
0.052,-0.058,1.509,-12.329,87.463,25.452
0.058,0.016,1.566,-21.606,81.482,28.992
0.039,0.058,1.624,-22.949,73.425,24.231
0.030,0.080,1.655,-25.024,65.002,16.113
-0.018,0.048,1.660,-23.010,58.777,8.850
-0.015,0.093,1.600,-21.179,51.147,5.310
0.013,0.088,1.633,-28.748,34.912,0.916
0.021,0.126,1.578,-35.400,29.358,-0.854
0.014,0.166,1.465,-32.410,25.391,-0.732
0.009,0.174,1.418,-30.090,14.221,-1.526
0.019,0.181,1.364,-28.687,3.174,-2.319
0.021,0.176,1.289,-24.963,-2.991,-2.502
0.007,0.171,1.211,-18.372,-6.531,-1.587
-0.045,0.102,1.184,-13.733,-9.949,0.549
0.034,0.140,1.143,-15.564,-13.000,6.958
0.042,0.191,1.160,-10.315,-17.029,9.888
0.021,0.132,1.155,3.479,-18.677,5.859
-0.003,0.070,1.169,10.498,-21.240,2.930
-0.004,0.060,1.165,8.057,-21.667,3.662
-0.010,0.056,1.129,3.113,-20.020,4.761
-0.015,0.042,1.101,-1.770,-19.714,4.089
-0.011,0.036,1.060,-5.981,-19.592,2.808
-0.004,0.032,1.012,-8.850,-19.104,0.916
0.014,0.033,0.973,-10.437,-18.677,-1.404
0.036,0.030,0.940,-9.766,-17.578,-3.418
0.052,0.037,0.907,-8.118,-15.442,-4.578
0.068,0.036,0.879,-5.676,-12.756,-5.615
0.083,0.036,0.867,-2.258,-10.925,-6.287
0.098,0.037,0.881,0.122,-9.949,-6.897
0.116,0.038,0.907,1.404,-8.484,-6.958
0.123,0.036,0.927,2.136,-6.226,-5.920
0.128,0.034,0.933,0.977,-3.845,-4.639
0.126,0.043,0.935,-1.343,-1.587,-3.174
0.119,0.049,0.943,-4.150,0.244,-1.892
0.110,0.056,0.944,-6.531,1.892,-0.854
0.096,0.066,0.935,-7.996,3.113,0.427
0.087,0.068,0.935,-8.789,2.991,1.282
0.070,0.071,0.947,-8.911,1.648,2.197
0.049,0.072,0.957,-8.423,0.671,2.686
-0.000,0.019,0.975,-9.827,0.610,2.686
0.058,0.066,0.968,-18.921,0.793,5.981
0.053,0.143,0.958,-17.578,1.038,6.470
0.018,0.076,0.969,-6.958,-0.183,-0.183
0.026,0.071,0.988,-4.272,-2.441,-2.625
0.032,0.093,1.002,-3.662,-2.258,-2.625
0.028,0.088,1.002,-1.099,-0.916,-3.174
0.009,0.040,1.025,-2.014,-0.427,-2.930
0.060,0.104,1.023,-8.972,0.488,0.061
0.061,0.146,1.016,-8.728,1.038,0.122
0.055,0.091,1.024,-3.540,0.854,-3.479
0.071,0.097,1.019,-4.395,0.122,-2.808
0.073,0.112,1.019,-5.371,-0.366,-0.366
0.069,0.095,1.025,-4.578,-1.160,0.977
0.063,0.096,1.022,-4.395,-1.831,2.747
0.053,0.094,1.018,-3.845,-2.686,4.028
0.044,0.085,1.009,-3.235,-3.784,4.456
0.031,0.078,1.002,-2.014,-5.371,4.639
0.027,0.073,1.003,-1.831,-6.531,3.967
0.026,0.065,0.992,-2.136,-7.385,2.991
0.026,0.062,0.987,-1.465,-7.935,2.014
0.030,0.058,0.982,-0.916,-7.996,1.282
0.031,0.056,0.973,-0.671,-7.263,0.549
0.034,0.054,0.959,-0.183,-5.981,0.122
0.033,0.057,0.954,0.916,-5.615,0.000
0.032,0.055,0.952,0.793,-5.432,-0.122
0.034,0.053,0.950,0.549,-4.700,-0.305
0.033,0.055,0.939,0.916,-3.784,-0.122
0.030,0.063,0.935,1.770,-3.418,0.244
0.033,0.065,0.945,2.441,-3.784,0.183

-0.643,-0.017,2.365,85.388,12.878,9.827
-0.655,-0.041,2.497,74.646,17.212,3.723
-0.584,-0.034,2.568,54.199,17.334,-1.892
-0.453,0.024,2.593,27.710,10.742,-4.883
-0.281,0.026,2.492,4.822,0.427,-7.935
-0.094,0.027,2.296,-33.142,-11.841,-12.634
0.112,0.069,2.109,-81.421,-27.222,-13.367
0.265,0.108,1.818,-107.239,-31.799,-6.409
0.345,0.156,1.480,-120.361,-30.273,4.517
0.351,0.254,1.246,-124.512,-33.203,16.968
0.338,0.330,1.000,-116.150,-36.560,23.071
0.338,0.375,0.846,-107.544,-44.312,22.461
0.354,0.374,0.732,-97.900,-56.824,16.541
0.390,0.372,0.580,-90.454,-69.214,10.254
0.432,0.359,0.443,-83.984,-82.031,6.287
0.443,0.317,0.283,-74.829,-88.806,4.395
0.420,0.305,0.132,-62.805,-88.440,4.272
0.384,0.290,0.033,-47.607,-87.585,5.005
0.359,0.185,-0.071,-29.907,-86.731,4.333
0.314,0.176,-0.121,-15.686,-84.229,5.066
0.259,0.074,-0.180,2.991,-82.764,8.179
0.173,0.065,-0.132,17.517,-82.153,12.512
0.109,-0.000,-0.124,31.860,-77.454,12.817
0.060,-0.017,-0.109,40.161,-71.777,10.193
0.025,-0.106,-0.178,48.340,-65.918,6.714
-0.004,-0.162,-0.206,55.664,-60.852,2.869
-0.043,-0.173,-0.161,65.491,-56.946,1.038
-0.056,-0.229,-0.075,72.571,-52.673,-1.526
-0.054,-0.244,0.047,72.144,-45.593,-2.625
-0.063,-0.334,0.065,69.153,-31.372,-2.747
-0.070,-0.331,0.083,56.152,-15.747,0.671
-0.083,-0.306,0.119,46.509,-3.113,7.080
-0.103,-0.312,0.155,40.283,7.629,11.841
-0.136,-0.279,0.155,33.447,17.090,16.296
-0.143,-0.331,0.214,28.442,17.944,15.808
-0.174,-0.304,0.180,20.264,27.954,16.541
-0.211,-0.276,0.075,14.221,37.476,17.029
-0.251,-0.241,0.069,14.832,38.269,12.756
-0.276,-0.221,0.121,16.113,38.269,5.371
-0.261,-0.134,0.190,20.447,41.504,-1.648
-0.201,-0.138,0.254,29.114,44.739,-11.597
-0.139,-0.106,0.398,28.931,46.509,-18.555
-0.052,-0.055,0.519,33.081,52.429,-20.935
0.034,-0.041,0.643,38.330,60.974,-20.081
0.109,0.005,0.744,38.147,72.388,-14.343
0.192,0.048,0.875,35.156,81.970,-7.935
0.255,0.044,1.032,27.527,90.027,-2.747
0.303,0.051,1.115,21.179,102.051,2.808
0.297,0.043,1.216,21.362,106.262,11.047
0.256,0.004,1.320,26.611,105.164,18.127
0.092,-0.031,1.415,31.616,102.722,24.231
0.049,-0.154,1.470,27.588,98.328,31.250
0.066,-0.124,1.536,12.695,92.590,42.603
0.059,-0.026,1.559,1.526,90.332,50.293
0.049,0.008,1.554,-3.357,86.731,47.302
0.071,0.021,1.552,-7.874,78.674,38.879
0.083,0.044,1.638,-6.836,63.538,31.433
0.074,0.020,1.735,-4.272,47.363,22.766
0.035,0.005,1.783,-4.883,33.386,13.916
-0.023,-0.071,1.839,-12.512,20.325,6.042
-0.046,-0.083,1.787,-24.963,12.085,4.272
-0.057,-0.043,1.721,-34.058,3.967,5.737
-0.089,-0.039,1.730,-42.542,-4.883,4.089
-0.083,-0.031,1.563,-44.373,-3.235,-0.244
-0.071,0.004,1.471,-42.114,-6.104,-1.221
-0.055,-0.006,1.455,-38.757,-14.160,-2.258
-0.049,0.015,1.379,-31.372,-15.930,-1.282
-0.058,0.017,1.341,-23.865,-19.592,0.793
-0.063,0.005,1.324,-19.043,-24.353,2.258
-0.070,0.007,1.284,-15.503,-27.100,4.456
-0.084,0.004,1.254,-12.268,-30.029,5.920
-0.091,0.000,1.229,-10.315,-32.715,6.042
-0.094,-0.000,1.202,-10.315,-34.546,4.822
-0.096,-0.011,1.171,-10.803,-34.546,2.930
-0.082,-0.016,1.124,-12.085,-32.532,0.427
-0.061,-0.016,1.073,-13.733,-29.968,-1.953
-0.038,-0.023,1.035,-14.709,-27.344,-4.150
-0.012,-0.027,1.000,-13.672,-24.841,-5.432
-0.001,-0.020,0.963,-12.146,-22.461,-5.920
0.014,-0.031,0.944,-11.536,-20.874,-6.531
0.030,-0.030,0.917,-11.536,-18.066,-5.981
0.031,-0.020,0.887,-10.925,-15.137,-4.639
0.030,-0.007,0.875,-10.681,-14.526,-3.418
0.031,-0.003,0.868,-9.766,-15.259,-2.380
0.026,-0.006,0.865,-8.423,-16.235,-1.160
0.017,-0.001,0.858,-6.958,-15.991,0.488
0.010,0.000,0.838,-5.859,-14.954,1.831
0.000,0.004,0.830,-5.676,-13.855,2.563
-0.002,0.007,0.831,-5.920,-12.878,2.319
-0.007,0.015,0.846,-5.127,-11.658,1.770
-0.008,0.016,0.855,-4.150,-10.071,0.854
-0.004,0.015,0.871,-2.991,-8.301,0.122
-0.008,0.012,0.888,-1.587,-6.409,-0.122
-0.021,0.011,0.918,-0.366,-5.127,0.061
-0.030,0.010,0.935,-0.488,-3.662,0.122
-0.039,0.011,0.945,-2.014,-2.319,0.061
-0.067,0.012,0.955,-3.906,-0.793,-0.610
-0.083,-0.022,0.960,-7.935,1.953,-0.427
-0.042,0.022,0.948,-16.235,4.517,2.075
-0.036,0.076,0.940,-18.616,5.920,3.723
-0.031,0.067,0.920,-14.832,5.676,2.319
-0.022,0.089,0.931,-13.245,2.625,2.136
-0.016,0.106,0.961,-9.949,0.610,1.465
-0.024,0.090,0.983,-5.737,0.488,-0.244
-0.033,0.071,0.988,-3.601,0.977,-0.549
-0.045,0.059,0.984,-3.113,1.465,0.488
-0.053,0.049,1.000,-3.418,0.916,1.648
-0.061,0.045,1.010,-3.967,0.854,2.380
-0.064,0.043,1.014,-5.310,1.953,2.625
-0.071,0.046,1.000,-5.615,3.662,2.991
-0.076,0.046,0.988,-5.615,3.784,3.052
-0.071,0.043,0.995,-6.042,2.502,2.747
-0.067,0.041,1.001,-5.859,1.526,1.953
-0.065,0.034,1.001,-4.761,1.160,1.404
-0.065,0.032,1.000,-4.028,0.854,0.977
-0.058,0.028,1.001,-3.296,0.244,0.610
-0.053,0.021,1.007,-2.808,-0.122,-0.122
-0.048,0.014,1.010,-2.014,-0.183,-0.488
-0.050,0.016,1.007,-1.526,0.183,-0.366

-0.159,-0.210,2.543,35.645,22.583,14.832
-0.168,-0.214,2.596,29.175,11.902,18.005
-0.152,-0.243,2.532,17.334,-1.892,14.038
-0.115,-0.232,2.343,3.357,-18.860,8.606
-0.044,-0.195,2.162,-9.094,-42.053,3.906
0.015,-0.163,2.022,-20.264,-65.369,-0.244
0.092,-0.152,1.839,-30.334,-80.933,-4.517
0.167,-0.160,1.594,-44.250,-88.562,-7.141
0.187,-0.039,1.328,-61.707,-96.008,-1.892
0.195,0.043,1.107,-82.520,-103.271,1.404
0.197,0.101,0.925,-91.248,-108.887,1.343
0.200,0.144,0.679,-93.201,-108.704,1.770
0.198,0.190,0.428,-87.708,-107.727,2.930
0.156,0.221,0.269,-72.388,-111.633,4.517
0.123,0.256,0.165,-54.260,-113.342,2.808
0.128,0.286,0.096,-34.729,-113.708,-2.075
0.127,0.203,0.065,-9.827,-114.380,-8.911
0.121,0.146,0.103,11.353,-113.647,-12.573
0.101,0.087,0.134,24.353,-110.352,-12.512
0.058,0.018,0.105,33.813,-103.333,-11.719
0.008,-0.040,0.076,35.583,-94.971,-10.376
-0.033,-0.066,0.053,31.982,-85.083,-7.996
-0.041,-0.067,0.000,24.780,-71.228,-8.301
-0.011,-0.062,-0.054,17.212,-59.570,-8.606
0.002,-0.074,-0.086,17.456,-51.392,-9.399
0.001,-0.099,-0.116,22.400,-43.945,-10.864
-0.004,-0.087,-0.140,31.494,-37.720,-11.902
-0.021,-0.112,-0.108,41.016,-33.752,-13.855
-0.005,-0.125,-0.122,43.762,-24.536,-15.503
-0.005,-0.153,-0.079,47.058,-15.442,-16.174
0.003,-0.159,-0.077,47.913,-5.066,-15.137
0.016,-0.161,-0.050,45.288,4.761,-12.268
0.018,-0.162,-0.066,40.405,18.372,-8.301
0.008,-0.106,-0.050,31.921,32.593,-2.930
0.009,-0.125,-0.138,27.954,45.105,0.732
-0.002,-0.102,-0.080,14.893,49.927,4.333
0.000,-0.036,0.021,7.263,53.955,7.568
0.033,0.052,-0.000,16.846,63.171,6.226
0.012,0.060,0.114,35.278,60.486,-7.751
0.001,-0.031,0.306,43.091,55.298,-24.048
0.044,-0.129,0.469,49.316,59.265,-33.875
0.057,-0.158,0.669,53.772,65.186,-37.048
0.049,-0.302,0.934,52.673,71.594,-37.903
0.026,-0.404,1.192,40.649,84.839,-24.170
-0.031,-0.422,1.388,27.405,104.431,1.587
-0.087,-0.321,1.560,19.775,121.033,22.522
-0.150,-0.274,1.670,13.733,133.789,25.330
-0.205,-0.246,1.687,0.610,141.602,18.494
-0.177,-0.334,1.697,-27.832,142.334,13.123
-0.039,-0.166,1.542,-56.580,146.912,22.339
0.072,0.032,1.425,-57.434,143.372,29.968
0.175,0.148,1.404,-59.326,128.784,30.396
0.253,0.256,1.383,-55.664,113.098,27.405
0.248,0.302,1.440,-44.983,92.896,20.020
0.158,0.201,1.555,-31.982,72.083,6.653
0.056,-0.005,1.624,-21.179,55.054,-1.282
-0.014,0.005,1.642,-22.339,41.565,3.540
-0.032,0.018,1.633,-28.015,30.945,6.592
0.051,0.136,1.545,-28.809,24.048,6.348
-0.090,0.070,1.486,-12.878,13.794,-7.019
-0.084,-0.164,1.591,-22.278,-2.380,-20.020
-0.021,-0.054,1.500,-38.452,2.869,-6.287
-0.028,-0.036,1.433,-29.358,7.874,5.493
-0.015,-0.007,1.421,-29.236,4.517,13.245
-0.018,0.000,1.354,-27.344,3.601,16.968
-0.048,-0.023,1.299,-23.315,0.610,19.165
-0.048,-0.033,1.253,-23.621,-2.625,19.226
-0.050,-0.020,1.217,-23.926,-5.249,19.348
-0.037,0.075,1.146,-17.273,-10.620,15.564
-0.067,-0.023,1.153,-7.019,-20.081,3.479
-0.070,-0.071,1.167,-7.141,-27.283,-0.916
-0.058,-0.058,1.151,-10.620,-28.503,0.916
-0.044,-0.050,1.122,-12.451,-26.978,2.136
-0.031,-0.029,1.089,-13.306,-25.513,2.380
-0.024,-0.054,1.058,-14.709,-23.315,0.793
-0.003,-0.047,1.014,-18.433,-19.592,1.709
0.013,-0.006,0.958,-19.470,-14.648,3.113
0.027,0.008,0.909,-16.541,-10.254,1.404
0.035,0.010,0.884,-12.634,-8.667,-1.160
0.040,0.018,0.881,-8.179,-8.789,-2.258
0.043,0.023,0.883,-5.737,-9.155,-3.052
0.052,0.020,0.879,-4.639,-9.216,-4.211
0.061,0.017,0.881,-4.028,-9.216,-4.395
0.071,0.013,0.890,-4.333,-9.094,-3.723
0.071,0.007,0.897,-4.883,-7.874,-2.563
0.062,0.011,0.909,-5.920,-6.165,-0.671
0.047,0.016,0.913,-7.446,-4.333,1.160
0.028,0.025,0.921,-8.179,-3.418,2.258
0.009,0.032,0.936,-8.728,-3.235,2.380
0.003,0.035,0.943,-9.338,-2.747,1.282
0.000,0.036,0.941,-9.888,-2.075,-0.366
0.000,0.039,0.943,-9.277,-1.343,-1.282
0.002,0.044,0.951,-7.996,-0.854,-1.404
-0.007,0.052,0.982,-6.897,-0.610,-1.343
-0.010,0.047,0.991,-6.409,0.183,-1.526
-0.019,0.046,1.001,-6.958,0.732,-1.526
-0.027,0.037,1.007,-7.935,1.099,-1.892
-0.025,0.034,1.009,-8.118,1.709,-2.136
-0.024,0.040,1.012,-8.484,2.808,-2.136
-0.013,0.052,1.018,-8.850,3.723,-2.258
-0.007,0.059,1.014,-7.996,4.150,-2.258
-0.006,0.064,1.017,-6.775,3.540,-1.892
-0.002,0.061,1.019,-6.470,2.319,-1.709
0.005,0.058,1.018,-5.188,1.831,-1.282
0.003,0.063,1.014,-3.845,1.099,-0.305
-0.001,0.063,1.018,-2.869,-0.427,0.305
-0.002,0.056,1.015,-3.052,-1.892,0.244
0.002,0.052,1.007,-3.235,-2.686,0.122
0.005,0.048,1.000,-3.296,-3.418,-0.244
0.013,0.043,0.994,-2.869,-4.272,-0.549
0.020,0.044,0.985,-2.197,-5.066,-0.427
0.013,0.036,0.979,-0.793,-5.798,-0.061
0.014,0.028,0.980,0.183,-6.775,0.122
0.016,0.032,0.979,0.916,-7.446,0.549
0.009,0.027,0.979,1.648,-7.080,0.610
0.003,0.023,0.980,1.831,-6.348,0.427
0.001,0.023,0.977,0.122,-5.066,-0.061
0.007,0.026,0.970,-2.197,-3.662,-0.549
0.020,0.030,0.956,-4.944,-2.441,-1.038

-1.641,-0.182,1.300,-19.287,-22.705,-0.671
-1.791,-0.198,1.396,-27.954,-29.968,0.671
-1.888,-0.184,1.446,-34.973,-36.499,1.404
-1.918,-0.163,1.521,-40.649,-43.030,-0.122
-1.866,-0.170,1.570,-44.556,-43.335,-4.456
-1.795,-0.317,1.629,-53.040,-29.968,-7.324
-1.640,-0.167,1.613,-63.721,-7.080,1.526
-1.496,-0.037,1.533,-58.533,15.198,2.869
-1.308,-0.014,1.489,-57.129,27.527,-6.226
-1.100,-0.017,1.476,-61.218,33.447,-16.907
-0.877,0.060,1.395,-61.584,39.551,-21.606
-0.663,0.153,1.288,-54.016,43.579,-24.292
-0.479,0.237,1.150,-44.739,47.302,-31.311
-0.329,0.210,0.948,-35.767,51.392,-41.809
-0.244,0.106,0.729,-29.053,51.880,-46.570
-0.142,0.056,0.518,-26.794,50.171,-39.917
-0.104,0.037,0.339,-16.357,47.546,-28.015
-0.095,0.009,0.149,-3.296,43.518,-15.686
-0.059,0.000,-0.048,3.174,37.109,-5.371
-0.033,0.035,-0.163,6.409,25.757,4.150
-0.019,0.069,-0.232,18.005,11.108,13.428
-0.032,0.082,-0.235,30.090,-4.395,20.325
-0.068,0.068,-0.206,34.668,-16.907,24.353
-0.091,0.023,-0.188,35.767,-23.865,26.123
-0.105,-0.002,-0.167,33.936,-26.917,27.405
-0.119,-0.014,-0.140,27.710,-28.381,29.297
-0.135,-0.027,-0.135,22.522,-28.198,30.640
-0.136,-0.031,-0.161,16.724,-24.841,30.823
-0.122,-0.041,-0.208,8.545,-19.104,28.809
-0.082,-0.053,-0.253,0.061,-12.817,24.719
0.006,-0.076,-0.288,-6.165,-7.324,20.691
0.070,-0.101,-0.278,-7.080,-2.869,19.653
0.121,-0.045,-0.292,-0.061,-0.183,24.048
0.109,-0.060,-0.302,17.334,-10.010,25.879
0.022,-0.218,-0.114,27.771,-35.217,21.301
-0.058,-0.302,0.058,23.132,-48.035,23.376
-0.150,-0.296,0.194,16.479,-50.476,29.480
-0.227,-0.264,0.235,12.207,-49.744,30.579
-0.296,-0.260,0.211,7.019,-53.528,23.804
-0.365,-0.207,0.211,0.977,-68.909,12.695
-0.458,-0.141,0.261,-7.019,-90.759,-5.981
-0.540,-0.126,0.325,-19.653,-108.765,-32.837
-0.588,-0.127,0.368,-36.011,-118.286,-59.692
-0.625,-0.157,0.415,-46.875,-122.253,-79.590
-0.682,-0.169,0.505,-45.471,-121.094,-88.196
-0.751,-0.205,0.588,-39.429,-108.765,-88.257
-0.761,-0.118,0.739,-31.128,-85.999,-82.397
-0.866,-0.044,1.050,-2.014,-47.668,-80.811
-0.820,-0.146,0.725,46.814,10.864,-79.529
-0.840,-0.089,0.670,53.528,43.701,-65.002
-0.853,0.084,0.727,54.504,64.758,-52.917
-0.836,0.160,0.774,54.016,79.834,-56.213
-0.818,0.187,0.871,51.697,89.050,-67.749
-0.856,0.232,0.946,48.828,94.543,-77.454
-0.915,0.051,1.021,63.049,86.243,-75.256
-1.033,-0.036,1.114,67.444,76.477,-54.871
-1.153,-0.101,1.217,53.955,71.716,-27.466
-1.193,0.072,1.265,39.307,72.388,-3.845
-1.195,0.118,1.222,24.292,80.078,3.235
-1.165,0.108,1.109,16.113,87.830,1.038
-1.143,0.039,1.026,12.207,91.553,-1.526
-1.075,-0.000,0.940,9.277,90.332,0.366
-1.074,-0.004,0.862,12.207,79.407,8.118
-1.051,0.028,0.864,13.123,58.899,15.137
-1.096,-0.027,1.039,11.658,38.208,17.639
-1.041,-0.013,0.977,4.517,38.025,18.494
-1.007,0.223,0.845,14.343,31.982,19.348
-1.107,-0.120,0.968,20.447,7.263,-1.038
-1.040,-0.189,1.094,3.357,-6.470,-2.869
-0.965,0.113,1.025,-9.155,-4.272,12.024
-0.932,0.105,1.002,-6.042,-5.432,6.226
-0.890,0.001,1.012,-3.845,-7.080,-3.906
-0.812,0.017,0.956,-6.165,-3.174,-3.113
-0.733,0.092,0.823,-1.099,-0.122,0.671
-0.737,0.056,0.815,10.498,-6.042,1.099
-0.742,0.024,0.870,11.780,-10.132,1.892
-0.738,0.031,0.833,8.789,-3.296,3.906
-0.731,0.057,0.758,8.423,5.188,4.944
-0.729,0.029,0.758,6.592,8.301,1.953
-0.705,0.002,0.729,1.587,10.315,-0.366
-0.675,0.023,0.689,-0.732,11.658,-0.061
-0.655,0.008,0.681,-1.343,8.911,-0.244
-0.634,0.016,0.686,-2.014,5.066,0.793
-0.609,0.044,0.677,0.122,2.625,2.258
-0.606,0.020,0.670,4.211,0.183,1.953
-0.604,0.014,0.693,5.493,-2.014,2.808
-0.595,0.037,0.695,4.761,-1.892,4.761
-0.597,0.026,0.691,4.578,-0.793,4.700
-0.601,0.020,0.700,1.709,0.427,4.456
-0.615,0.017,0.698,-0.183,1.282,4.639
-0.637,0.000,0.702,-0.610,-0.122,4.944
-0.656,-0.012,0.719,-0.549,-2.441,5.676
-0.674,-0.021,0.731,-0.916,-3.540,6.226
-0.691,-0.033,0.730,-0.854,-3.479,6.226
-0.705,-0.049,0.727,-1.160,-2.747,5.615
-0.722,-0.046,0.724,-1.038,-2.319,5.493
-0.736,-0.040,0.727,-1.221,-2.319,4.822
-0.734,-0.040,0.731,-2.014,-1.770,3.113
-0.727,-0.033,0.725,-2.991,-0.183,1.099
-0.713,-0.035,0.709,-2.869,0.916,-1.038
-0.695,-0.034,0.701,-2.930,0.427,-2.136
-0.673,-0.025,0.710,-2.258,-0.793,-2.197
-0.661,-0.029,0.721,-0.793,-1.770,-1.831
-0.664,-0.032,0.725,0.732,-1.953,-0.977
-0.673,-0.028,0.717,1.404,-1.953,0.732
-0.677,-0.029,0.716,1.221,-2.930,1.953
-0.689,-0.037,0.715,0.977,-3.906,2.258
-0.693,-0.040,0.710,1.221,-4.578,2.625
-0.693,-0.039,0.710,0.854,-5.310,2.197
-0.687,-0.042,0.708,1.770,-5.981,1.221
-0.684,-0.047,0.709,2.991,-6.287,0.427
-0.674,-0.044,0.718,3.723,-6.531,-0.061
-0.665,-0.037,0.727,3.784,-5.676,-0.671
-0.653,-0.036,0.729,4.211,-3.540,-1.160
-0.641,-0.033,0.730,3.601,-1.282,-1.221
-0.638,-0.022,0.730,3.662,1.099,-0.610
-0.637,-0.023,0.716,3.723,3.174,0.000
-0.635,-0.025,0.703,2.014,4.150,0.427
-0.642,-0.039,0.697,1.038,3.784,0.854

-1.273,-0.021,1.420,-31.250,20.935,-16.296
-1.411,0.043,1.510,-40.833,28.076,-9.888
-1.526,0.115,1.547,-44.373,33.325,-4.089
-1.642,0.117,1.539,-50.537,37.415,-4.639
-1.727,0.087,1.534,-62.439,36.987,-7.141
-1.775,0.041,1.513,-65.918,31.311,-7.874
-1.729,-0.019,1.485,-65.430,25.330,-5.737
-1.620,-0.039,1.455,-63.354,20.813,0.244
-1.461,-0.025,1.464,-54.077,18.982,8.057
-1.265,0.006,1.436,-42.236,21.179,15.808
-1.055,0.040,1.403,-44.739,27.283,22.217
-0.880,0.103,1.422,-56.274,34.119,26.245
-0.693,0.164,1.412,-68.542,40.222,28.015
-0.513,0.230,1.354,-79.407,45.532,28.870
-0.351,0.234,1.203,-88.013,50.781,25.146
-0.217,0.184,0.905,-88.623,59.204,19.165
-0.090,0.151,0.548,-80.261,60.608,17.883
-0.017,0.161,0.251,-61.707,46.814,23.132
0.020,0.207,0.066,-39.551,19.714,28.564
0.044,0.239,-0.026,-17.639,-9.949,30.212
0.058,0.276,-0.075,1.587,-35.400,26.794
0.047,0.257,-0.093,16.174,-54.749,17.029
0.026,0.157,-0.119,25.879,-65.796,7.202
0.012,0.086,-0.144,31.738,-67.322,3.235
0.027,0.057,-0.196,33.142,-61.584,3.357
0.046,0.050,-0.231,27.649,-55.420,4.700
0.071,0.038,-0.224,19.409,-52.185,6.409
0.098,0.013,-0.201,12.085,-50.903,8.362
0.122,-0.023,-0.205,5.615,-49.683,11.597
0.143,-0.057,-0.240,2.869,-47.546,15.991
0.150,-0.092,-0.305,2.991,-45.410,21.362
0.148,-0.115,-0.337,4.822,-46.875,27.039
0.111,-0.145,-0.344,7.019,-50.964,32.043
0.076,-0.199,-0.341,7.446,-54.016,36.377
0.057,-0.232,-0.292,6.531,-56.213,40.466
0.024,-0.258,-0.230,6.042,-54.138,43.884
0.013,-0.286,-0.178,8.484,-48.706,47.302
-0.012,-0.300,-0.110,13.000,-41.687,51.331
-0.036,-0.395,0.008,18.005,-33.081,56.030
-0.142,-0.240,0.070,23.621,-17.822,69.092
-0.176,0.034,-0.076,37.048,-11.292,61.768
-0.307,-0.009,-0.115,44.983,-38.940,13.794
-0.420,-0.277,0.296,28.076,-80.688,-39.246
-0.637,-0.493,0.588,45.044,-106.934,-61.035
-0.640,-0.383,0.711,62.683,-87.891,-54.321
-0.673,-0.310,0.700,60.364,-61.462,-43.518
-0.681,-0.234,0.830,53.040,-43.457,-32.471
-0.789,-0.099,0.948,39.734,-17.456,-30.334
-0.873,-0.053,1.008,30.273,12.939,-43.030
-0.943,-0.102,1.080,25.635,35.522,-56.458
-1.062,-0.130,1.204,25.818,47.852,-57.556
-1.151,-0.016,1.316,26.184,61.768,-51.636
-1.131,0.021,1.292,26.184,80.139,-49.133
-1.069,0.089,1.227,33.630,87.158,-43.152
-1.009,0.157,1.198,35.156,90.820,-39.917
-0.965,0.187,1.197,37.109,89.417,-36.804
-0.967,0.185,1.190,36.072,88.989,-33.325
-0.994,0.137,1.169,34.241,87.341,-27.222
-1.026,0.154,1.141,24.780,85.693,-18.127
-1.039,0.140,1.090,19.226,83.740,-12.451
-1.066,0.090,1.058,17.212,80.505,-9.766
-1.049,0.019,1.020,12.939,78.674,-7.263
-1.032,0.031,0.941,8.545,78.613,-1.526
-0.987,0.054,0.891,11.536,69.763,3.601
-0.970,0.026,0.941,17.944,52.795,5.737
-0.980,-0.026,1.045,19.104,41.443,6.104
-0.945,-0.065,1.077,13.245,43.884,10.010
-0.811,0.251,0.907,11.353,47.424,15.625
-0.928,0.033,0.873,26.306,32.043,0.122
-0.876,-0.241,1.006,27.039,3.845,-6.409
-0.810,0.062,0.999,4.211,-3.052,10.315
-0.846,0.035,0.973,6.531,-5.920,11.292
-0.848,-0.099,0.966,15.320,-11.475,4.883
-0.827,-0.056,0.939,7.690,-13.000,7.751
-0.799,-0.012,0.917,5.127,-14.404,10.193
-0.793,-0.045,0.921,9.766,-16.052,7.935
-0.787,-0.020,0.862,10.925,-12.390,5.981
-0.781,-0.063,0.891,13.794,-11.292,3.235
-0.748,-0.041,0.904,7.690,-3.601,1.038
-0.708,-0.001,0.849,3.601,7.019,-0.977
-0.680,-0.021,0.781,3.601,12.451,-4.944
-0.671,-0.059,0.745,5.310,10.742,-7.935
-0.624,-0.081,0.734,8.789,5.615,-7.996
-0.589,-0.039,0.723,5.554,2.380,-5.066
-0.564,-0.042,0.705,7.019,-0.366,-3.479
-0.555,-0.048,0.687,7.568,-2.747,-2.625
-0.544,-0.059,0.707,8.606,-5.066,-1.892
-0.554,-0.058,0.720,7.080,-5.188,-0.916
-0.568,-0.054,0.719,5.615,-3.845,-0.061
-0.574,-0.044,0.734,4.944,-2.991,-0.183
-0.584,-0.040,0.750,2.563,-1.892,-1.404
-0.598,-0.043,0.766,1.465,-0.549,-2.625
-0.612,-0.051,0.791,1.404,1.648,-4.395
-0.631,-0.062,0.782,-2.686,5.432,-5.859
-0.620,-0.055,0.782,-6.714,7.996,-6.348
-0.604,-0.051,0.782,-8.423,9.216,-6.592
-0.600,-0.037,0.766,-8.301,9.644,-6.531
-0.602,-0.050,0.758,-7.629,9.216,-7.141
-0.606,-0.059,0.755,-7.141,8.179,-6.897
-0.600,-0.047,0.758,-7.751,7.202,-5.676
-0.599,-0.046,0.762,-6.958,5.920,-4.883
-0.605,-0.044,0.774,-5.066,4.761,-4.517
-0.620,-0.045,0.784,-3.906,4.761,-3.906
-0.618,-0.041,0.783,-3.479,4.517,-3.052
-0.626,-0.036,0.787,-2.441,4.456,-2.686
-0.633,-0.042,0.794,-2.747,4.578,-2.625
-0.626,-0.036,0.795,-3.845,5.432,-2.563
-0.622,-0.033,0.789,-4.089,5.615,-2.197
-0.618,-0.029,0.794,-4.211,4.578,-1.770
-0.614,-0.026,0.797,-5.371,4.089,-1.465
-0.625,-0.033,0.799,-5.188,4.211,-1.221
-0.624,-0.035,0.798,-5.554,4.150,-0.977
-0.622,-0.037,0.798,-6.409,4.517,-0.916
-0.614,-0.040,0.801,-7.019,5.249,-0.916
-0.612,-0.046,0.795,-6.897,6.287,-0.732
-0.629,-0.049,0.786,-7.629,6.897,-0.366
-0.632,-0.055,0.779,-6.653,5.920,-0.122
-0.629,-0.052,0.787,-6.287,4.395,-0.122
-0.624,-0.063,0.788,-7.263,4.578,-0.793

-1.131,0.142,1.516,-5.127,-16.968,4.211
-1.231,0.138,1.700,-10.010,-24.353,6.287
-1.289,0.158,1.857,-22.217,-25.330,7.019
-1.292,0.161,1.937,-39.063,-20.081,4.028
-1.233,0.127,1.937,-57.556,-11.169,0.305
-1.126,0.101,1.899,-73.669,-0.366,-1.038
-0.977,0.093,1.765,-85.083,13.306,0.366
-0.802,0.062,1.541,-88.501,28.320,3.845
-0.658,0.027,1.293,-84.473,40.649,11.230
-0.529,0.040,1.034,-74.707,44.983,21.484
-0.423,0.087,0.809,-62.256,39.185,29.846
-0.345,0.118,0.594,-51.575,28.259,32.104
-0.250,0.151,0.362,-46.692,16.907,28.442
-0.171,0.194,0.212,-44.556,0.244,23.621
-0.115,0.231,0.164,-38.940,-22.095,17.700
-0.075,0.246,0.169,-31.311,-43.945,9.888
-0.033,0.194,0.172,-23.437,-58.960,1.953
0.007,0.162,0.135,-15.442,-64.392,-0.244
0.039,0.152,0.068,-4.883,-64.636,2.136
0.049,0.130,0.010,6.287,-61.584,5.859
0.056,0.090,-0.042,17.517,-58.533,10.071
0.049,0.058,-0.105,28.748,-58.105,15.198
0.027,0.030,-0.204,38.391,-60.059,19.226
0.001,-0.009,-0.319,45.166,-63.721,20.569
-0.017,-0.059,-0.391,47.668,-70.129,20.630
-0.020,-0.107,-0.391,46.753,-76.904,20.630
-0.003,-0.119,-0.317,42.664,-82.581,20.386
0.028,-0.151,-0.239,40.894,-83.191,18.188
0.062,-0.209,-0.188,40.405,-79.224,15.564
0.090,-0.250,-0.118,36.377,-74.829,16.235
0.094,-0.272,-0.017,29.724,-71.228,20.508
0.070,-0.293,0.088,23.499,-67.505,27.344
0.049,-0.273,0.146,19.775,-63.354,36.682
-0.023,-0.202,0.122,21.973,-64.331,44.067
-0.084,-0.287,0.262,20.752,-77.087,41.504
-0.150,-0.267,0.352,9.033,-77.454,41.809
-0.202,-0.248,0.390,0.916,-71.472,40.710
-0.247,-0.117,0.367,-5.676,-61.707,36.194
-0.347,-0.066,0.287,-5.737,-57.434,18.799
-0.379,0.007,0.632,-16.296,-58.899,-6.226
-0.522,-0.168,0.499,-7.324,-43.335,-31.250
-0.466,-0.163,0.473,-4.883,-12.024,-42.419
-0.473,-0.099,0.459,-3.967,17.029,-43.518
-0.499,-0.136,0.475,5.066,43.335,-45.837
-0.527,-0.120,0.542,13.245,64.148,-40.955
-0.555,-0.038,0.600,23.560,76.843,-28.442
-0.578,0.061,0.734,36.987,80.200,-16.663
-0.642,0.067,0.867,47.241,80.444,-10.620
-0.683,0.050,1.008,54.016,77.087,-4.944
-0.719,0.096,1.138,53.040,75.684,3.479
-0.803,0.067,1.228,51.453,77.087,8.667
-0.865,0.067,1.267,49.133,78.247,14.038
-0.962,0.035,1.303,41.809,79.163,17.578
-1.020,0.040,1.307,32.654,79.773,18.677
-1.083,-0.011,1.334,25.146,78.552,17.212
-1.103,-0.025,1.349,19.043,77.271,16.174
-1.116,-0.021,1.374,13.977,76.782,15.808
-1.101,0.002,1.375,9.583,78.064,14.099
-1.083,0.028,1.360,7.507,77.271,11.414
-1.078,-0.041,1.464,4.272,72.449,6.958
-1.018,-0.011,1.467,-4.028,76.660,6.348
-1.010,0.013,1.370,-8.850,81.299,7.751
-0.909,0.171,1.244,-11.658,74.829,8.118
-0.958,0.168,1.151,-3.174,50.720,-0.183
-0.998,-0.227,1.344,8.057,15.625,-15.991
-0.884,-0.043,1.284,-5.920,6.775,-4.089
-0.900,0.086,1.161,-10.742,4.517,6.165
-0.910,-0.019,1.115,-3.906,-7.324,0.916
-0.853,-0.025,1.093,-7.446,-19.897,0.610
-0.810,0.014,1.069,-11.292,-24.170,2.563
-0.777,0.022,0.975,-8.545,-21.729,0.793
-0.752,-0.037,0.953,-2.808,-23.193,-1.282
-0.716,-0.046,0.951,-5.371,-20.691,-1.343
-0.665,-0.006,0.870,-7.324,-11.475,-0.427
-0.629,-0.003,0.802,-4.822,-5.737,-2.319
-0.594,-0.032,0.771,-1.892,-5.920,-5.615
-0.544,-0.027,0.757,-2.380,-7.874,-6.775
-0.503,-0.024,0.750,-1.465,-9.888,-6.287
-0.469,-0.017,0.751,0.916,-10.681,-5.737
-0.435,-0.011,0.732,1.526,-9.338,-4.395
-0.418,0.011,0.676,1.526,-8.118,-3.296
-0.417,-0.021,0.708,3.906,-12.146,-2.991
-0.421,-0.034,0.721,3.235,-11.414,-2.380
-0.428,-0.044,0.696,1.282,-6.409,-1.526
-0.442,-0.052,0.681,-0.061,-2.930,-0.916
-0.442,-0.050,0.671,-1.465,-1.465,-0.061
-0.442,-0.050,0.661,-1.953,-0.732,0.549
-0.453,-0.061,0.669,-0.061,-1.526,0.671
-0.477,-0.061,0.685,2.808,-2.930,1.709
-0.493,-0.064,0.713,3.845,-4.395,2.075
-0.513,-0.084,0.747,4.456,-4.517,1.587
-0.535,-0.090,0.763,5.615,-2.441,1.648
-0.554,-0.084,0.776,5.859,-0.244,1.892
-0.572,-0.082,0.790,5.005,1.160,1.892
-0.585,-0.084,0.810,4.517,1.770,1.648
-0.595,-0.085,0.825,2.563,2.136,1.221
-0.605,-0.079,0.841,0.732,2.380,1.038
-0.616,-0.081,0.844,0.732,2.441,0.854
-0.624,-0.087,0.841,0.977,1.709,0.793
-0.635,-0.083,0.842,0.671,0.610,0.916
-0.640,-0.092,0.844,-2.075,0.366,0.366
-0.637,-0.090,0.849,-4.150,0.488,-0.244
-0.639,-0.084,0.834,-5.066,1.160,-0.671
-0.628,-0.075,0.837,-6.592,1.160,-1.160
-0.617,-0.075,0.834,-7.324,1.465,-1.648
-0.605,-0.063,0.838,-7.507,2.563,-1.770
-0.603,-0.049,0.833,-7.507,4.578,-1.709
-0.601,-0.042,0.833,-7.812,6.409,-2.258
-0.589,-0.044,0.835,-7.080,8.057,-2.747
-0.582,-0.042,0.834,-5.920,10.071,-2.747
-0.574,-0.039,0.830,-6.653,12.268,-2.686
-0.566,-0.036,0.818,-7.263,14.771,-2.747
-0.560,-0.035,0.807,-7.629,16.418,-2.808
-0.555,-0.035,0.804,-8.606,16.052,-2.869
-0.550,-0.038,0.795,-8.179,14.771,-2.808
-0.544,-0.045,0.794,-7.263,11.963,-2.625
-0.542,-0.046,0.790,-7.141,9.827,-2.380
-0.534,-0.047,0.776,-5.798,7.324,-1.953
-0.531,-0.048,0.771,-5.371,5.005,-1.587

-1.452,0.018,1.854,7.812,19.409,15.076
-1.776,-0.068,2.119,13.916,12.878,15.930
-2.065,-0.157,2.308,20.081,4.150,14.404
-2.208,-0.210,2.357,16.357,-2.686,8.972
-2.137,-0.212,2.346,-1.892,-7.507,-1.282
-1.903,-0.212,2.240,-18.433,-6.958,-14.771
-1.614,-0.344,2.077,-35.950,1.404,-26.428
-1.195,-0.353,1.870,-56.152,15.686,-16.724
-0.850,-0.246,1.636,-64.026,29.358,6.897
-0.585,-0.132,1.438,-63.782,39.490,27.405
-0.368,0.031,1.194,-58.472,44.617,39.856
-0.144,0.092,1.016,-58.716,38.086,41.992
0.067,0.115,0.866,-59.753,25.818,43.152
0.274,0.318,0.747,-65.369,11.963,47.363
0.449,0.502,0.560,-62.256,-0.793,46.631
0.560,0.597,0.510,-50.720,-16.724,39.307
0.601,0.548,0.351,-43.701,-20.081,22.034
0.519,0.319,0.112,-34.790,-12.207,7.568
0.422,0.177,-0.146,-15.747,-3.052,13.611
0.330,0.127,-0.336,8.301,0.183,26.794
0.256,0.114,-0.458,29.541,-2.625,35.156
0.188,0.071,-0.578,48.645,-8.789,37.170
0.127,0.004,-0.672,58.655,-18.127,35.339
0.042,-0.076,-0.712,57.983,-27.344,32.288
-0.038,-0.120,-0.671,51.331,-36.377,30.090
-0.082,-0.181,-0.610,41.687,-43.945,27.527
-0.075,-0.223,-0.552,28.015,-47.852,25.635
-0.059,-0.236,-0.492,19.043,-46.997,26.611
-0.048,-0.268,-0.457,16.541,-42.786,27.954
-0.053,-0.321,-0.437,17.029,-38.330,29.053
-0.069,-0.359,-0.384,15.869,-35.400,31.189
-0.135,-0.423,-0.273,13.916,-33.081,33.142
-0.082,-0.261,-0.341,14.343,-30.518,34.180
-0.127,-0.260,-0.240,23.987,-49.255,20.325
-0.228,-0.382,-0.026,24.719,-71.228,-3.052
-0.290,-0.552,0.165,18.677,-77.148,-16.174
-0.310,-0.483,0.259,14.099,-75.256,-13.367
-0.334,-0.373,0.304,8.240,-79.285,-12.146
-0.357,-0.320,0.366,2.930,-95.154,-19.409
-0.365,-0.215,0.463,-0.549,-113.342,-27.466
-0.382,-0.123,0.542,-3.174,-122.070,-38.513
-0.378,-0.024,0.622,-2.502,-121.582,-51.514
-0.417,-0.063,0.678,-3.540,-111.694,-67.200
-0.471,-0.064,1.403,2.197,-98.206,-76.843
-0.759,-0.328,1.211,40.894,-52.124,-75.256
-0.815,-0.195,1.271,37.659,7.812,-60.974
-0.908,-0.076,1.226,33.813,60.120,-54.993
-0.950,-0.102,1.177,29.358,98.328,-61.646
-0.916,-0.090,1.067,25.940,115.662,-60.669
-0.922,-0.045,1.065,35.217,105.042,-47.119
-0.892,-0.022,1.129,40.771,90.149,-37.109
-0.925,-0.006,1.263,39.429,77.332,-28.381
-0.935,0.020,1.349,31.494,73.364,-22.095
-0.958,0.036,1.384,21.790,77.454,-17.212
-0.977,0.073,1.344,13.306,84.351,-14.282
-0.998,0.043,1.300,7.263,86.792,-14.221
-0.984,0.065,1.255,0.244,83.496,-13.123
-0.978,0.044,1.227,-2.808,77.209,-12.390
-0.937,0.071,1.190,-3.113,69.824,-10.803
-0.949,-0.032,1.257,-6.165,63.110,-10.559
-0.877,0.019,1.142,-14.893,70.190,-5.859
-0.846,0.188,0.920,-10.559,66.040,-1.770
-0.917,-0.096,0.960,-0.061,39.124,-14.160
-0.855,-0.149,1.020,-6.897,12.939,-10.437
-0.811,0.042,0.986,-17.395,2.136,3.174
-0.843,-0.018,1.004,-13.123,-7.507,2.563
-0.837,-0.072,1.032,-12.024,-14.954,0.305
-0.786,-0.033,1.009,-18.005,-16.052,2.808
-0.768,-0.001,0.992,-14.954,-17.639,3.174
-0.764,-0.039,1.040,-11.414,-21.790,0.061
-0.731,-0.039,1.059,-16.846,-15.625,-1.465
-0.694,-0.007,1.004,-19.165,-4.150,-1.648
-0.686,-0.027,0.953,-17.029,4.211,-3.235
-0.657,-0.018,0.903,-16.357,8.301,-5.310
-0.634,-0.012,0.855,-16.907,10.071,-7.568
-0.590,-0.026,0.822,-17.273,9.888,-9.827
-0.535,-0.030,0.781,-18.127,10.132,-10.803
-0.491,-0.013,0.741,-15.747,9.827,-10.132
-0.476,-0.023,0.725,-11.780,7.446,-9.155
-0.463,-0.026,0.726,-9.644,3.601,-7.141
-0.460,-0.009,0.747,-8.240,0.427,-4.272
-0.459,-0.021,0.765,-6.165,-1.282,-3.296
-0.457,-0.024,0.779,-5.737,-2.075,-2.380
-0.462,-0.015,0.797,-5.798,-1.770,-0.854
-0.469,-0.010,0.800,-5.493,-0.793,0.427
-0.484,-0.008,0.797,-5.188,0.854,1.099
-0.492,-0.014,0.782,-5.188,3.052,1.038
-0.497,-0.018,0.768,-5.798,5.371,1.404
-0.508,-0.016,0.759,-5.676,6.714,1.465
-0.525,-0.021,0.758,-3.906,7.324,1.465
-0.538,-0.028,0.759,-2.747,7.385,1.099
-0.544,-0.028,0.762,-2.136,6.958,1.099
-0.550,-0.026,0.771,-2.136,5.676,1.404
-0.563,-0.020,0.796,-1.892,2.930,1.770
-0.578,-0.014,0.820,-2.502,0.671,1.831
-0.587,-0.015,0.837,-3.052,-0.366,1.282
-0.591,-0.012,0.843,-3.845,0.183,0.549
-0.590,-0.008,0.840,-4.517,1.404,-0.305
-0.590,-0.003,0.836,-5.127,2.930,-0.977
-0.585,0.002,0.836,-5.249,3.845,-1.465
-0.579,0.007,0.838,-5.249,3.906,-1.770
-0.571,0.011,0.840,-4.639,3.906,-1.953
-0.566,0.015,0.839,-4.211,3.784,-2.014
-0.563,0.012,0.835,-3.601,4.028,-2.136
-0.556,0.009,0.837,-3.235,3.906,-2.014
-0.551,0.016,0.838,-2.563,2.747,-1.404
-0.551,0.013,0.842,-1.892,1.221,-1.160
-0.543,0.003,0.847,-1.831,0.061,-0.610
-0.538,-0.000,0.848,-2.441,-0.488,0.366
-0.552,-0.002,0.845,-1.953,-0.793,1.587
-0.565,-0.007,0.846,-1.953,-1.770,2.625
-0.568,-0.007,0.844,-2.747,-2.686,3.235
-0.570,-0.009,0.836,-3.052,-2.808,3.052
-0.568,-0.014,0.828,-2.502,-2.625,2.930
-0.564,-0.014,0.825,-2.625,-2.319,2.625
-0.560,-0.014,0.821,-2.686,-1.587,2.441
-0.555,-0.016,0.817,-2.625,-0.854,2.136
-0.551,-0.018,0.811,-2.625,-0.122,1.831
-0.551,-0.020,0.804,-2.686,0.061,1.526

-1.137,0.034,1.980,40.833,19.775,15.503
-1.453,-0.096,2.290,39.124,20.630,4.456
-1.774,-0.369,2.475,42.847,24.902,-6.836
-1.994,-0.461,2.565,26.794,29.724,-2.563
-2.025,-0.368,2.510,-7.202,34.790,6.287
-1.812,-0.230,2.407,-48.157,39.978,0.916
-1.464,-0.134,2.282,-97.229,46.143,-16.602
-1.045,-0.282,2.261,-142.273,56.458,-33.020
-0.672,-0.345,2.027,-160.828,81.421,-23.865
-0.367,-0.247,1.565,-165.222,114.319,3.113
-0.154,-0.023,1.047,-172.607,131.714,24.780
-0.009,0.098,0.617,-170.959,123.718,30.518
0.086,0.117,0.291,-157.776,98.999,28.687
0.095,0.101,0.051,-134.521,70.740,26.794
0.083,0.142,-0.106,-104.736,41.626,27.771
0.070,0.205,-0.135,-76.416,10.620,24.414
0.063,0.117,-0.145,-54.016,-13.000,12.512
0.046,0.057,-0.140,-36.743,-32.410,4.883
0.065,0.051,-0.114,-23.865,-46.448,1.709
0.067,0.040,-0.045,-17.883,-54.138,-1.343
0.084,0.017,-0.077,-15.198,-51.270,-4.272
0.099,-0.001,-0.142,-10.315,-43.091,-6.104
0.092,-0.029,-0.204,-6.958,-32.532,-7.202
0.095,-0.066,-0.290,-5.798,-18.372,-7.019
0.087,-0.100,-0.356,-2.136,-7.568,-5.005
0.057,-0.151,-0.399,3.723,-3.479,-3.235
0.019,-0.209,-0.398,9.094,-4.761,-2.014
-0.004,-0.270,-0.342,17.273,-10.376,-0.671
-0.019,-0.307,-0.240,25.146,-17.639,1.343
-0.049,-0.289,-0.142,32.043,-20.996,2.930
-0.089,-0.267,-0.087,35.156,-21.423,1.404
-0.120,-0.266,-0.016,34.668,-24.170,-2.930
-0.102,-0.248,-0.032,34.180,-25.818,-5.493
-0.089,-0.229,-0.033,37.415,-34.546,-5.920
-0.060,-0.248,0.058,30.334,-49.561,-5.676
-0.041,-0.172,0.133,19.958,-59.937,-0.244
-0.066,-0.122,0.171,18.311,-68.726,5.981
-0.097,-0.089,0.207,22.766,-79.041,10.864
-0.166,-0.079,0.288,24.475,-88.379,14.160
-0.184,-0.023,0.377,24.963,-89.966,16.541
-0.316,0.125,0.402,28.809,-84.412,9.521
-0.426,0.132,0.392,31.189,-76.599,-11.292
-0.517,0.019,0.436,29.114,-75.989,-35.706
-0.587,-0.051,0.581,29.358,-81.238,-51.331
-0.658,-0.054,1.253,37.476,-81.726,-57.251
-0.708,-0.231,1.198,81.665,-55.359,-49.561
-0.650,-0.163,1.161,87.585,-16.174,-24.963
-0.745,-0.031,1.245,85.510,3.418,-1.282
-0.833,0.069,1.343,90.637,7.751,7.202
-0.859,0.097,1.451,85.083,8.606,5.554
-0.885,0.076,1.496,78.125,10.925,0.793
-0.885,0.081,1.569,63.721,16.052,-1.282
-0.896,0.101,1.562,47.546,27.283,-3.174
-0.882,0.116,1.490,33.081,39.856,-5.249
-0.884,0.130,1.440,21.057,48.096,-5.920
-0.869,0.140,1.381,12.939,52.856,-6.592
-0.865,0.136,1.327,7.935,55.725,-7.935
-0.875,0.171,1.255,6.592,55.481,-9.705
-0.890,0.088,1.235,4.639,52.307,-12.451
-0.862,0.066,1.164,-1.831,53.284,-12.329
-0.823,0.068,1.032,-7.141,53.833,-9.155
-0.774,0.094,0.930,-7.385,44.556,-6.958
-0.734,0.112,0.920,-5.615,27.100,-6.287
-0.694,0.078,0.886,-1.526,12.085,-7.324
-0.672,0.055,0.909,2.441,-1.953,-5.859
-0.666,0.055,0.956,4.578,-11.047,-2.991
-0.665,0.048,0.976,5.249,-15.564,-0.549
-0.672,0.043,1.006,5.127,-17.761,0.732
-0.680,0.014,1.066,3.784,-18.250,0.671
-0.682,-0.001,1.122,0.916,-13.733,0.488
-0.631,0.052,1.019,0.366,-5.737,1.160
-0.642,0.015,1.028,9.644,-9.583,-0.061
-0.653,-0.047,1.090,7.935,-13.550,-1.465
-0.614,-0.031,1.033,-2.319,-5.798,0.488
-0.581,0.015,0.926,-2.808,-2.014,2.502
-0.583,-0.025,0.932,2.625,-9.583,0.427
-0.576,-0.070,0.954,1.526,-14.282,-1.465
-0.560,-0.060,0.914,-2.258,-11.841,0.061
-0.561,-0.056,0.870,-3.601,-9.521,1.160
-0.552,-0.041,0.846,-4.822,-9.949,0.793
-0.542,-0.057,0.837,-6.104,-10.559,-0.854
-0.524,-0.055,0.836,-7.568,-9.460,-1.709
-0.521,-0.035,0.827,-8.911,-6.653,-2.258
-0.507,-0.035,0.806,-13.367,-3.723,-3.540
-0.489,-0.060,0.792,-16.968,-1.709,-4.822
-0.462,-0.066,0.772,-15.869,1.465,-4.272
-0.450,-0.010,0.726,-12.512,3.113,-2.319
-0.457,-0.015,0.763,-7.568,-0.244,-2.075
-0.469,-0.042,0.762,-7.080,2.441,-2.808
-0.486,-0.029,0.724,-7.324,5.981,-1.648
-0.492,-0.008,0.729,-6.836,4.028,-0.366
-0.510,-0.017,0.768,-4.761,0.122,-0.854
-0.531,-0.025,0.794,-2.258,0.122,-1.465
-0.539,-0.013,0.792,-2.563,2.747,-1.038
-0.548,-0.000,0.787,-3.113,3.784,-1.160
-0.547,-0.002,0.811,-2.808,2.808,-1.770
-0.542,0.010,0.820,-2.930,2.258,-1.831
-0.544,0.010,0.834,-2.502,1.465,-1.953
-0.547,0.001,0.840,-2.808,2.441,-2.258
-0.547,0.001,0.827,-3.723,3.723,-1.770
-0.547,0.008,0.836,-3.845,2.563,-0.854
-0.555,0.010,0.851,-3.052,0.793,-0.427
-0.562,0.005,0.853,-2.808,0.793,-0.488
-0.556,0.009,0.843,-4.211,0.732,-0.366
-0.554,0.007,0.849,-4.211,-0.610,-0.305
-0.562,0.005,0.855,-3.540,-2.319,0.183
-0.568,0.008,0.855,-3.540,-3.357,1.160
-0.570,0.007,0.856,-4.456,-3.967,1.648
-0.572,-0.005,0.854,-5.127,-4.395,1.770
-0.566,-0.008,0.850,-6.653,-3.967,2.625
-0.571,-0.015,0.837,-6.287,-4.028,3.784
-0.568,-0.020,0.852,-5.920,-5.615,4.150
-0.578,-0.028,0.843,-4.944,-5.371,4.089
-0.583,-0.028,0.836,-5.493,-4.700,3.723
-0.582,-0.028,0.833,-6.897,-4.028,2.930
-0.570,-0.023,0.832,-8.179,-3.662,2.075
-0.558,-0.021,0.822,-8.362,-3.174,1.770
-0.530,-0.015,0.823,-8.789,-3.113,1.892
-0.512,-0.008,0.804,-8.362,-2.441,2.197

-1.322,-0.007,1.657,8.057,11.169,17.639
-1.550,-0.014,1.879,0.183,10.803,10.315
-1.771,-0.027,2.082,-10.742,13.245,-0.977
-1.896,-0.063,2.228,-25.269,18.860,-15.442
-1.939,-0.194,2.342,-38.879,28.992,-29.907
-1.756,-0.245,2.274,-52.124,46.936,-30.640
-1.474,-0.206,2.136,-62.622,64.819,-19.714
-1.219,-0.147,1.977,-61.829,74.951,-7.019
-1.002,-0.138,1.851,-54.749,75.684,2.869
-0.752,-0.109,1.748,-54.871,70.313,15.137
-0.534,-0.073,1.632,-54.443,64.087,27.710
-0.329,-0.062,1.470,-54.199,60.669,40.222
-0.172,-0.119,1.291,-51.147,56.763,58.960
-0.039,-0.045,1.047,-54.688,53.894,80.994
0.081,0.100,0.698,-59.570,52.368,96.680
0.161,0.273,0.331,-62.561,43.396,96.558
0.205,0.346,0.062,-65.491,25.330,79.407
0.205,0.364,-0.125,-61.401,4.822,56.519
0.182,0.319,-0.259,-48.706,-13.367,36.194
0.140,0.297,-0.414,-31.494,-31.494,22.461
0.093,0.245,-0.394,-26.062,-54.626,7.324
0.046,0.104,-0.323,-10.376,-73.914,-3.662
0.022,0.095,-0.308,8.057,-73.425,-3.357
0.019,0.087,-0.305,17.334,-63.721,-2.380
0.001,0.037,-0.356,24.963,-53.894,-1.526
-0.017,0.027,-0.388,27.710,-48.035,0.854
-0.045,-0.009,-0.415,33.386,-45.715,4.211
-0.073,-0.049,-0.445,37.476,-44.067,7.019
-0.082,-0.081,-0.490,35.889,-43.823,9.216
-0.067,-0.112,-0.446,29.358,-48.096,9.766
-0.058,-0.171,-0.340,27.893,-51.514,9.705
-0.071,-0.233,-0.236,27.527,-49.866,11.963
-0.070,-0.268,-0.155,26.489,-45.410,17.578
-0.073,-0.290,-0.048,25.085,-40.710,24.048
-0.102,-0.312,0.071,23.926,-34.241,30.151
-0.133,-0.341,0.208,20.996,-26.123,37.048
-0.154,-0.412,0.387,17.517,-17.090,46.631
-0.192,-0.087,0.340,20.813,-1.404,68.115
-0.223,0.145,0.252,22.522,-2.747,55.420
-0.295,-0.119,0.395,12.695,-33.447,3.113
-0.355,-0.362,0.520,-8.484,-47.180,-33.203
-0.383,-0.292,0.632,-28.809,-46.265,-34.729
-0.406,-0.182,0.585,-30.762,-30.151,-33.142
-0.400,-0.150,0.492,-27.222,-13.062,-39.307
-0.382,-0.106,0.499,-17.212,-4.578,-42.664
-0.421,0.054,0.512,-2.625,-1.465,-45.776
-0.428,0.111,0.555,9.888,-5.981,-61.707
-0.444,0.060,0.701,16.907,-18.188,-79.895
-0.457,-0.021,0.908,22.583,-26.123,-86.121
-0.465,-0.040,1.053,26.001,-18.860,-77.271
-0.482,0.065,1.109,31.738,-3.113,-60.791
-0.508,0.031,1.410,38.330,13.428,-48.157
-0.556,0.010,1.302,48.584,42.664,-28.870
-0.598,0.068,1.240,37.354,71.228,-8.057
-0.673,0.035,1.240,33.936,87.341,2.625
-0.735,0.054,1.226,29.114,93.323,10.010
-0.785,0.018,1.252,24.353,93.018,12.024
-0.815,0.016,1.280,20.996,90.637,12.512
-0.835,-0.039,1.324,19.470,88.440,11.841
-0.854,-0.042,1.285,16.479,89.233,13.000
-0.837,-0.064,1.241,15.747,85.938,13.550
-0.814,-0.060,1.240,14.465,76.721,16.113
-0.785,-0.026,1.245,14.893,66.895,19.043
-0.823,-0.066,1.338,17.517,57.129,19.104
-0.829,-0.157,1.432,11.047,56.763,18.250
-0.804,-0.098,1.403,-0.732,68.176,23.193
-0.822,-0.017,1.282,-7.812,74.524,24.231
-0.826,-0.047,1.210,-10.620,61.768,18.005
-0.733,0.140,1.183,-10.742,34.119,9.949
-0.833,-0.132,1.237,2.014,9.705,-8.667
-0.771,-0.279,1.324,1.099,-8.240,-14.832
-0.691,-0.075,1.255,-12.756,-7.812,-2.319
-0.705,-0.071,1.179,-7.324,-7.385,-0.305
-0.698,-0.127,1.165,-2.808,-12.878,-2.930
-0.654,-0.066,1.124,-6.653,-14.954,-1.343
-0.652,-0.065,1.096,-4.517,-13.977,-1.282
-0.633,-0.094,1.113,-4.944,-14.648,-2.869
-0.622,-0.065,1.062,-9.766,-7.141,-3.235
-0.579,-0.042,0.975,-13.611,-0.244,-5.554
-0.539,-0.054,0.914,-15.991,0.671,-9.460
-0.493,-0.070,0.881,-16.541,-1.221,-12.024
-0.440,-0.051,0.850,-18.005,-3.357,-11.108
-0.413,-0.021,0.840,-16.357,-5.798,-9.705
-0.397,-0.024,0.831,-14.099,-7.141,-9.705
-0.388,-0.013,0.798,-13.611,-6.592,-9.705
-0.380,-0.021,0.788,-11.169,-7.568,-9.155
-0.370,-0.005,0.804,-10.315,-7.812,-7.874
-0.381,-0.000,0.800,-8.545,-5.493,-7.446
-0.404,-0.004,0.836,-6.897,-3.418,-7.629
-0.409,-0.008,0.858,-7.690,0.671,-7.812
-0.406,-0.015,0.850,-9.644,7.202,-8.057
-0.400,-0.022,0.831,-11.658,13.428,-7.935
-0.385,-0.013,0.826,-15.381,17.700,-7.385
-0.415,0.035,0.801,-18.250,20.752,-6.531
-0.402,0.092,0.840,-31.677,20.508,-8.362
-0.389,0.004,0.866,-40.161,21.057,-16.357
-0.393,-0.052,0.856,-36.926,24.475,-18.311
-0.384,-0.022,0.872,-35.278,26.428,-13.306
-0.406,-0.011,0.874,-26.978,27.832,-9.521
-0.432,0.007,0.888,-20.874,28.809,-7.446
-0.450,0.022,0.905,-20.996,28.748,-7.141
-0.453,0.025,0.920,-22.766,29.724,-9.033
-0.448,0.025,0.934,-25.757,31.372,-11.353
-0.451,0.030,0.953,-27.039,34.363,-13.062
-0.446,0.037,0.963,-27.771,38.025,-14.465
-0.432,0.046,0.970,-26.794,41.931,-15.381
-0.373,0.028,0.955,-23.254,46.875,-16.052
-0.401,0.064,0.914,-19.043,51.453,-14.221
-0.419,0.079,0.895,-17.456,51.331,-14.404
-0.423,0.063,0.896,-14.709,47.729,-17.456
-0.396,0.055,0.905,-13.000,42.908,-19.653
-0.372,0.047,0.905,-10.864,38.391,-19.104
-0.368,0.072,0.891,-8.057,33.997,-16.968
-0.359,0.078,0.893,-7.385,27.466,-15.503
-0.349,0.074,0.907,-7.812,19.592,-14.343
-0.344,0.081,0.926,-7.324,13.184,-13.123
-0.342,0.074,0.935,-7.935,8.484,-12.512
-0.347,0.068,0.945,-9.338,5.066,-12.024
-0.334,0.068,0.947,-11.230,2.258,-10.864

-0.997,0.117,1.667,36.682,-12.146,-2.747
-1.119,0.054,1.645,31.677,-11.597,-3.845
-1.218,0.007,1.671,18.250,-11.902,-4.089
-1.330,-0.028,1.833,8.728,-14.282,-4.333
-1.417,-0.054,1.958,5.798,-14.404,-3.357
-1.427,-0.064,2.005,-2.380,-12.817,-2.625
-1.335,-0.054,2.001,-16.785,-11.780,-2.686
-1.200,-0.059,1.962,-34.973,-9.399,-2.625
-1.028,-0.084,1.861,-48.096,-4.395,0.610
-0.876,-0.057,1.744,-52.795,-0.305,10.376
-0.747,-0.040,1.654,-59.082,0.732,21.423
-0.625,-0.068,1.583,-70.129,-0.244,31.128
-0.508,-0.044,1.516,-82.825,1.709,41.626
-0.405,-0.061,1.454,-93.567,7.690,48.645
-0.295,-0.103,1.262,-103.027,19.226,53.223
-0.192,-0.107,1.068,-111.084,28.076,62.134
-0.114,-0.064,0.893,-117.126,33.997,72.693
-0.056,0.025,0.722,-121.582,39.063,75.806
-0.020,0.104,0.331,-125.977,40.527,67.566
-0.006,0.195,0.048,-157.471,31.311,44.556
0.057,0.079,-0.085,-165.100,6.470,18.982
0.105,0.161,-0.091,-135.193,-11.475,11.719
0.137,0.222,-0.081,-92.468,-18.860,8.301
0.189,0.098,-0.229,-55.237,-19.897,0.977
0.234,0.206,-0.207,-34.973,-26.123,0.854
0.228,0.125,-0.249,0.061,-31.006,0.244
0.224,0.117,-0.202,23.132,-32.104,-2.258
0.199,0.015,-0.258,48.035,-30.396,-2.380
0.166,-0.082,-0.358,63.293,-30.518,-1.343
0.106,-0.168,-0.389,68.542,-36.377,2.930
0.058,-0.224,-0.439,73.364,-43.762,11.047
0.001,-0.215,-0.455,70.435,-48.706,20.508
-0.021,-0.214,-0.491,64.331,-51.270,27.039
-0.025,-0.189,-0.429,47.485,-55.237,30.762
-0.059,-0.231,-0.325,34.790,-60.181,31.494
-0.086,-0.300,-0.241,31.006,-60.852,32.227
-0.091,-0.333,-0.163,25.330,-58.716,36.560
-0.125,-0.352,-0.095,21.606,-54.565,42.969
-0.162,-0.342,-0.013,21.057,-49.500,49.622
-0.284,-0.441,0.158,23.865,-41.626,53.650
-0.213,0.098,-0.063,29.785,-26.611,57.373
-0.356,-0.038,-0.017,47.180,-50.415,20.935
-0.385,-0.378,0.288,36.499,-88.562,-23.010
-0.372,-0.349,0.522,7.446,-94.421,-35.461
-0.350,-0.153,0.686,-0.671,-84.351,-33.691
-0.373,-0.032,0.746,0.977,-70.679,-39.368
-0.374,0.005,0.802,0.977,-59.692,-54.932
-0.388,0.051,0.865,2.686,-52.490,-68.481
-0.417,0.044,0.956,9.705,-46.631,-78.369
-0.515,-0.089,1.380,37.292,-29.846,-82.092
-0.481,-0.042,1.327,63.721,19.104,-70.068
-0.510,0.062,1.239,50.171,57.373,-47.302
-0.616,0.014,1.240,52.368,78.979,-32.776
-0.673,0.041,1.274,49.194,87.769,-16.724
-0.697,0.145,1.277,40.588,92.346,-3.784
-0.773,0.110,1.325,37.109,91.431,-1.953
-0.873,0.063,1.411,33.569,88.501,-1.770
-0.948,0.109,1.396,23.315,92.102,-0.183
-0.984,0.083,1.364,12.939,95.703,-2.808
-0.989,0.113,1.321,6.287,94.299,-6.348
-0.972,0.071,1.310,4.395,90.332,-10.376
-0.948,0.098,1.295,0.061,87.341,-8.606
-0.927,0.141,1.278,-2.197,85.327,-5.920
-0.901,0.150,1.258,0.854,82.275,-5.005
-0.882,0.179,1.280,5.798,75.867,-4.089
-0.875,0.078,1.379,2.319,71.899,-5.493
-0.826,0.123,1.331,-7.080,80.994,-0.488
-0.812,0.169,1.170,-9.766,83.313,4.028
-0.778,0.216,1.060,-7.019,62.988,3.662
-0.754,0.203,1.213,-2.075,24.902,-1.038
-0.767,0.047,1.254,3.113,2.014,-6.226
-0.735,0.135,1.228,6.836,-6.836,-3.418
-0.797,0.062,1.235,13.184,-17.273,-4.822
-0.789,-0.031,1.302,10.315,-27.954,-6.226
-0.737,0.082,1.237,-4.211,-22.705,-2.319
-0.719,0.081,1.172,-7.812,-16.602,-3.174
-0.662,0.092,1.062,-11.841,-13.000,-7.324
-0.603,0.068,1.036,-14.404,-12.146,-9.949
-0.544,0.052,1.006,-17.761,-8.667,-10.315
-0.496,0.073,0.927,-19.287,-0.244,-7.812
-0.452,0.107,0.831,-17.151,4.761,-6.409
-0.417,0.109,0.786,-15.137,2.075,-7.446
-0.374,0.076,0.781,-12.573,-2.991,-8.728
-0.341,0.095,0.785,-10.559,-6.287,-6.897
-0.325,0.076,0.787,-7.690,-7.568,-4.944
-0.311,0.093,0.750,-4.883,-7.141,-3.113
-0.317,0.078,0.758,-1.831,-9.583,-2.014
-0.328,0.044,0.779,-1.465,-10.742,-1.770
-0.340,0.043,0.771,-1.892,-8.484,-0.183
-0.365,0.043,0.762,-1.221,-6.470,1.160
-0.386,0.038,0.766,-0.488,-5.859,1.038
-0.406,0.024,0.775,-0.854,-5.371,-0.488
-0.423,0.012,0.799,-1.099,-4.272,-2.136
-0.424,-0.000,0.803,-0.732,-2.380,-3.479
-0.410,-0.005,0.803,-1.038,0.244,-4.578
-0.408,-0.001,0.808,0.122,3.113,-5.005
-0.416,-0.001,0.817,1.648,5.920,-5.493
-0.426,-0.005,0.822,3.845,8.118,-6.104
-0.456,0.018,0.817,4.272,9.155,-5.859
-0.455,0.059,0.845,-1.770,7.446,-6.775
-0.412,0.003,0.884,-9.766,5.920,-10.132
-0.460,-0.042,0.866,0.122,7.324,-9.216
-0.509,0.002,0.908,6.775,7.019,-3.540
-0.523,0.027,0.928,2.075,7.080,-2.197
-0.516,0.031,0.930,-0.549,8.484,-4.211
-0.481,0.021,0.921,-3.113,11.536,-6.531
-0.461,0.013,0.906,-1.648,15.381,-7.629
-0.454,0.026,0.905,2.686,18.250,-6.470
-0.461,0.043,0.908,2.319,19.897,-5.615
-0.473,0.050,0.904,1.953,21.423,-5.371
-0.452,0.058,0.896,1.953,20.508,-4.822
-0.447,0.049,0.887,3.784,17.944,-3.845
-0.457,0.058,0.873,4.822,14.954,-3.052
-0.437,0.061,0.862,3.906,11.475,-4.272
-0.422,0.053,0.853,5.127,7.385,-5.066
-0.390,0.026,0.845,5.554,2.625,-3.418
-0.395,0.046,0.849,3.357,-1.465,2.075
-0.396,0.079,0.848,2.258,-4.028,5.188
-0.395,0.060,0.857,4.028,-6.775,2.991

-0.422,0.630,1.744,11.963,134.644,-30.029
-0.430,0.724,1.822,13.245,155.884,-35.583
-0.410,0.803,1.914,11.353,170.654,-45.227
-0.436,0.791,2.000,6.775,177.734,-57.068
-0.451,0.724,2.054,0.854,175.598,-67.200
-0.396,0.591,2.062,-3.357,166.626,-67.871
-0.292,0.498,2.042,-5.981,152.405,-59.082
-0.157,0.443,2.001,-5.798,134.460,-46.875
-0.043,0.376,1.861,-12.207,120.544,-40.222
0.039,0.327,1.731,-20.386,106.995,-37.598
0.060,0.253,1.671,-28.992,97.107,-41.870
0.108,0.214,1.602,-41.687,97.046,-48.401
0.165,0.119,1.487,-63.232,107.056,-57.373
0.231,0.020,1.263,-78.796,123.535,-65.308
0.276,-0.098,1.026,-89.783,142.334,-68.237
0.289,-0.160,0.744,-86.670,157.898,-60.974
0.266,-0.214,0.516,-80.811,164.917,-48.584
0.289,-0.255,0.312,-59.875,162.537,-29.358
0.317,-0.207,0.149,-40.527,151.733,-5.493
0.360,-0.098,0.030,-26.001,133.362,10.803
0.379,-0.096,-0.004,-16.785,106.873,13.245
0.415,-0.146,0.003,-21.484,83.069,11.047
0.466,-0.201,0.003,-24.231,66.467,10.864
0.482,-0.253,0.032,-22.766,52.551,14.526
0.493,-0.284,0.009,-21.301,44.922,21.301
0.494,-0.270,-0.071,-18.677,41.504,30.457
0.445,-0.228,-0.171,-10.376,34.912,39.429
0.360,-0.157,-0.240,-1.892,22.827,45.837
0.246,-0.109,-0.252,3.540,6.042,47.058
0.131,-0.065,-0.217,5.859,-10.437,44.250
0.031,-0.036,-0.194,8.545,-23.132,38.147
-0.021,-0.021,-0.215,13.184,-31.616,29.663
-0.054,-0.000,-0.256,18.982,-40.466,22.156
-0.060,0.039,-0.322,27.161,-50.476,16.113
-0.067,0.078,-0.414,40.833,-63.354,8.972
-0.070,0.146,-0.472,52.734,-83.740,0.183
-0.089,0.167,-0.518,57.251,-110.962,-12.207
-0.087,0.147,-0.505,51.819,-144.165,-27.039
-0.129,0.087,-0.388,39.063,-181.946,-39.978
-0.193,0.047,-0.164,29.968,-217.346,-47.241
-0.225,-0.010,0.081,22.156,-240.662,-50.415
-0.250,-0.120,0.268,20.569,-243.408,-49.927
-0.281,-0.170,0.409,25.452,-235.046,-42.236
-0.313,-0.166,0.490,31.189,-221.741,-32.104
-0.352,-0.110,0.601,32.227,-209.717,-24.170
-0.354,-0.042,0.729,30.334,-200.012,-21.729
-0.357,-0.066,0.850,34.363,-190.674,-25.818
-0.313,-0.125,0.927,37.048,-178.467,-27.100
-0.247,-0.105,0.992,45.532,-166.260,-22.583
-0.208,-0.079,1.052,55.969,-158.264,-19.104
-0.185,-0.085,1.124,53.101,-153.564,-16.785
-0.219,-0.077,1.353,37.964,-156.677,-12.695
-0.287,-0.062,1.600,9.155,-153.198,-7.996
-0.426,0.000,1.829,-18.188,-139.160,-0.244
-0.501,0.199,1.986,-42.358,-115.051,11.292
-0.667,0.372,2.147,-49.194,-86.670,14.954
-0.721,0.627,2.580,-44.006,-52.551,8.362
-0.714,0.500,2.340,21.606,-0.061,-4.150
-0.599,0.523,2.050,23.254,52.246,-9.216
-0.478,0.499,1.929,17.273,75.073,-14.893
-0.360,0.441,1.831,10.132,81.726,-19.226
-0.276,0.420,1.793,0.793,79.712,-18.494
-0.238,0.382,1.784,-6.653,76.416,-15.442
-0.196,0.351,1.710,-12.451,79.590,-8.972
-0.173,0.323,1.570,-15.625,86.182,-0.427
-0.169,0.314,1.354,-17.761,90.637,8.972
-0.160,0.350,1.223,-21.179,88.074,17.578
-0.151,0.366,1.152,-21.118,80.688,23.560
-0.167,0.392,1.108,-24.231,70.190,28.015
-0.161,0.453,1.046,-28.503,57.434,28.137
-0.143,0.421,1.011,-29.114,41.626,20.020
-0.130,0.376,1.001,-28.381,26.489,10.803
-0.104,0.334,1.004,-25.269,14.648,4.578
-0.088,0.280,0.994,-23.071,8.179,1.221
-0.061,0.247,0.953,-21.667,6.775,0.061
-0.038,0.219,0.904,-19.348,6.714,0.427
-0.026,0.205,0.854,-16.846,6.531,1.587
-0.008,0.211,0.818,-14.832,5.920,1.892
-0.004,0.202,0.804,-11.780,4.700,0.610
-0.001,0.188,0.798,-10.132,3.418,-1.038
0.015,0.165,0.764,-8.911,3.174,-2.014
0.033,0.146,0.744,-7.202,1.953,-2.197
0.041,0.134,0.734,-3.601,-0.671,-1.831
0.034,0.130,0.753,-2.319,-3.357,-0.916
0.018,0.144,0.800,-2.869,-5.554,1.343
-0.002,0.154,0.852,-3.235,-5.737,2.808
-0.024,0.165,0.903,-4.089,-3.357,3.540
-0.043,0.182,0.940,-5.066,1.160,3.906
-0.058,0.197,0.966,-5.493,6.287,3.845
-0.067,0.200,0.974,-6.226,10.620,3.662
-0.067,0.199,0.963,-6.287,14.404,3.479
-0.069,0.198,0.937,-5.493,17.883,3.296
-0.065,0.203,0.914,-4.028,20.081,3.174
-0.061,0.208,0.911,-2.197,19.470,2.747
-0.061,0.207,0.917,-0.916,16.602,2.563
-0.063,0.214,0.926,-0.488,12.756,2.747
-0.068,0.224,0.944,-0.305,8.240,3.113
-0.075,0.233,0.972,-1.709,3.662,3.235
-0.081,0.229,1.002,-3.296,-0.122,2.869
-0.081,0.108,1.068,-8.972,-2.380,1.526
-0.075,0.162,1.100,-30.090,-0.977,1.282
-0.055,0.261,1.025,-34.729,5.981,9.094
-0.059,0.312,1.001,-27.161,8.118,10.681
-0.059,0.313,0.954,-20.081,7.935,8.301
-0.044,0.238,0.935,-13.000,7.446,5.127
-0.059,0.180,0.965,-13.733,6.226,3.113
-0.055,0.225,0.961,-16.296,7.568,6.531
-0.063,0.275,0.972,-13.794,7.996,10.620
-0.081,0.267,1.029,-16.541,5.188,10.010
-0.068,0.250,1.025,-25.635,5.432,7.935
-0.056,0.254,0.985,-29.480,8.057,7.935
-0.049,0.273,0.960,-28.748,9.094,8.545
-0.040,0.280,0.934,-27.527,8.118,8.118
-0.042,0.308,0.941,-25.696,5.920,5.249
-0.036,0.320,0.936,-22.339,4.028,1.526
-0.035,0.295,0.936,-16.724,3.357,-1.465
-0.032,0.268,0.927,-13.611,2.930,-1.892
-0.033,0.235,0.903,-11.597,3.479,-0.916
-0.027,0.231,0.869,-11.292,4.211,1.099

-0.221,0.745,2.066,157.104,22.461,-26.794
-0.148,0.748,2.466,164.795,44.617,-36.621
-0.123,0.796,2.797,146.851,80.078,-44.922
-0.073,0.729,3.017,101.379,127.258,-54.810
-0.016,0.604,3.034,52.002,178.650,-65.430
0.036,0.450,2.825,12.329,231.445,-71.899
0.075,0.326,2.494,-13.733,281.372,-73.486
0.159,0.327,2.071,-40.222,323.608,-79.224
0.276,0.248,1.622,-65.247,350.220,-92.163
0.437,0.227,1.266,-83.618,355.469,-106.689
0.545,0.104,1.009,-95.764,343.811,-127.075
0.631,-0.510,0.568,-94.238,302.917,-125.000
0.779,-0.755,0.656,-17.395,181.213,-40.710
0.744,-0.492,0.723,29.785,133.362,29.175
0.650,-0.245,0.628,35.950,130.249,75.012
0.598,-0.148,0.470,39.124,131.897,87.097
0.453,-0.188,0.273,35.400,123.962,76.416
0.319,-0.227,0.193,2.747,105.469,66.528
0.219,-0.166,0.099,-48.889,81.665,65.979
0.214,-0.087,-0.106,-80.139,60.730,67.139
0.198,-0.034,-0.301,-66.040,40.466,61.707
0.115,0.026,-0.310,-57.678,11.597,53.345
0.106,0.086,-0.119,-80.261,-17.883,42.419
0.056,0.007,-0.062,-97.168,-27.832,28.870
0.025,-0.064,-0.108,-80.994,-28.137,21.545
0.002,-0.047,-0.226,-48.523,-28.259,22.888
-0.011,-0.001,-0.306,-15.686,-36.560,24.597
-0.023,0.043,-0.343,1.831,-50.354,22.400
-0.007,-0.008,-0.450,9.155,-61.279,15.503
-0.052,-0.071,-0.601,20.569,-74.463,9.216
-0.020,-0.097,-0.736,46.631,-93.750,6.226
0.024,-0.086,-0.810,62.561,-118.225,4.883
0.013,-0.058,-0.797,67.139,-146.973,4.272
-0.038,-0.068,-0.802,83.923,-177.979,1.221
-0.085,-0.007,-0.651,95.764,-213.623,-2.625
-0.202,0.020,-0.535,84.412,-234.985,-11.719
-0.265,-0.034,-0.393,64.148,-247.070,-23.987
-0.328,-0.146,-0.178,50.293,-255.737,-33.447
-0.336,-0.199,0.061,48.462,-254.761,-35.095
-0.330,-0.179,0.306,41.138,-244.873,-31.860
-0.333,-0.194,0.482,33.447,-230.164,-30.518
-0.319,-0.202,0.585,34.363,-216.125,-29.175
-0.295,-0.171,0.647,46.692,-208.740,-26.611
-0.308,-0.141,0.739,60.669,-212.280,-26.001
-0.346,-0.137,0.903,65.308,-223.694,-28.320
-0.390,-0.119,1.151,58.472,-238.098,-31.555
-0.428,-0.080,1.501,36.011,-245.178,-35.767
-0.455,-0.043,1.862,0.305,-233.398,-40.833
-0.456,-0.001,2.168,-37.292,-206.970,-42.297
-0.405,0.066,2.378,-62.012,-169.434,-36.682
-0.293,0.329,2.912,-70.984,-121.887,-29.785
-0.259,0.087,2.708,18.188,-64.697,-24.231
-0.172,0.150,2.411,23.987,1.160,-5.371
-0.124,0.252,2.222,24.231,41.443,9.399
-0.105,0.285,2.047,26.245,63.477,16.113
-0.097,0.302,1.870,18.311,77.393,21.301
-0.114,0.315,1.753,8.301,81.177,27.710
-0.147,0.383,1.677,-1.587,78.003,34.973
-0.144,0.437,1.624,-6.348,71.167,37.048
-0.149,0.484,1.569,-7.935,65.369,32.104
-0.174,0.331,1.331,-18.860,71.228,19.104
-0.134,0.328,1.315,-31.616,60.181,21.790
-0.156,0.339,1.295,-38.269,44.922,28.687
-0.153,0.382,1.181,-34.546,45.227,30.823
-0.176,0.349,1.026,-31.860,49.866,22.522
-0.109,0.321,0.983,-30.640,41.382,17.395
-0.117,0.313,0.977,-23.743,26.306,12.329
-0.126,0.312,0.978,-18.372,15.930,6.653
-0.151,0.290,0.999,-14.587,6.714,0.793
-0.167,0.257,1.038,-13.000,1.404,-3.601
-0.161,0.245,1.033,-13.062,1.831,-7.385
-0.153,0.199,1.016,-12.695,4.028,-11.353
-0.122,0.180,1.000,-12.634,5.981,-13.062
-0.074,0.167,0.992,-13.428,6.714,-13.550
-0.043,0.130,0.965,-13.794,6.042,-14.587
-0.003,0.089,0.923,-14.038,5.188,-13.977
0.034,0.067,0.860,-11.475,3.723,-11.353
0.047,0.045,0.793,-7.690,2.197,-8.118
0.055,0.045,0.776,-2.991,0.244,-4.822
0.052,0.066,0.819,0.732,-3.113,-2.014
0.038,0.096,0.882,-0.427,-7.629,0.244
0.027,0.097,0.928,-4.028,-10.986,1.282
0.012,0.091,0.953,-4.272,-10.864,1.892
-0.003,0.099,0.965,-3.662,-7.996,2.808
-0.028,0.109,0.960,-3.601,-4.456,3.601
-0.043,0.121,0.955,-3.601,-0.854,4.272
-0.050,0.133,0.961,-2.441,2.197,4.456
-0.055,0.137,0.956,-1.221,4.333,4.150
-0.054,0.134,0.942,0.122,5.615,4.150
-0.047,0.137,0.942,0.549,5.859,4.761
-0.043,0.149,0.955,1.160,5.310,5.859
-0.044,0.161,0.972,1.709,4.089,6.714
-0.047,0.153,0.969,1.831,3.296,7.202
-0.033,0.151,0.919,0.977,2.075,8.118
-0.049,0.159,0.926,1.221,-2.319,8.667
-0.063,0.169,0.941,2.075,-4.150,8.606
-0.074,0.186,0.957,3.235,-6.165,8.362
-0.085,0.188,0.984,3.174,-8.728,7.568
-0.082,0.192,0.998,2.625,-9.399,6.348
-0.077,0.191,1.016,2.380,-10.071,4.822
-0.069,0.180,1.028,2.136,-10.315,3.296
-0.069,0.169,1.043,1.465,-9.583,2.808
-0.072,0.166,1.029,0.671,-7.629,3.174
-0.085,0.169,1.006,1.953,-5.005,3.784
-0.098,0.173,0.993,3.662,-3.784,4.089
-0.095,0.174,0.982,4.700,-3.845,3.662
-0.090,0.177,0.964,5.005,-4.517,3.174
-0.090,0.168,0.946,4.700,-6.165,1.770
-0.073,0.155,0.949,3.479,-9.399,0.427
-0.057,0.139,0.966,2.136,-12.390,-0.549
-0.058,0.124,0.975,1.038,-14.404,-0.732
-0.057,0.120,0.994,0.793,-15.076,-0.366
-0.059,0.119,0.998,0.671,-13.977,0.122
-0.052,0.109,0.979,-0.549,-11.353,0.488
-0.048,0.090,0.925,-1.465,-7.690,0.427
-0.058,0.088,0.894,-0.732,-4.883,0.977
-0.075,0.093,0.903,0.916,-4.028,1.831
-0.093,0.117,0.930,1.404,-4.578,2.686
-0.105,0.120,0.946,1.282,-4.578,2.258

-0.376,0.521,2.046,28.198,-7.812,10.315
-0.536,0.542,2.285,26.184,-6.653,5.310
-0.665,0.574,2.427,16.174,-3.174,-0.305
-0.767,0.522,2.427,0.732,2.014,-6.226
-0.749,0.499,2.354,-16.235,6.653,-8.850
-0.697,0.480,2.253,-39.612,11.902,-11.230
-0.589,0.407,2.200,-44.556,15.259,-19.226
-0.471,0.263,2.070,-14.465,18.738,-27.527
-0.329,0.165,1.913,4.578,22.705,-29.846
-0.207,0.066,1.730,8.423,25.574,-30.090
-0.118,-0.075,1.548,6.042,27.588,-30.457
-0.002,-0.211,1.381,0.732,30.029,-26.001
0.125,-0.290,1.243,-9.766,36.377,-15.015
0.201,-0.379,1.122,-26.611,44.739,-2.075
0.218,-0.434,0.998,-37.537,50.537,16.724
0.268,-0.328,0.701,-28.564,64.758,37.720
0.227,-0.274,0.479,-19.470,66.101,50.171
0.164,-0.225,0.372,-25.085,56.458,59.326
0.141,-0.203,0.275,-25.757,45.593,66.406
0.089,-0.195,0.207,-19.775,31.677,71.106
0.047,-0.165,0.160,-12.390,18.860,73.730
0.020,-0.135,0.095,-7.874,14.648,76.721
0.025,-0.079,0.026,-4.028,11.902,79.285
0.064,0.031,-0.064,1.221,10.620,73.792
0.103,0.089,-0.158,5.127,6.958,54.749
0.118,0.013,-0.283,-0.366,2.869,31.189
0.108,-0.065,-0.355,-12.939,-5.493,19.958
0.066,-0.062,-0.319,-23.132,-18.494,19.714
0.012,-0.038,-0.289,-25.818,-27.954,19.714
-0.034,-0.024,-0.266,-26.917,-30.823,17.395
-0.085,-0.021,-0.233,-23.804,-31.372,13.733
-0.091,-0.017,-0.216,-20.996,-29.846,8.911
-0.068,-0.037,-0.227,-17.151,-24.963,3.967
-0.031,-0.047,-0.249,-10.559,-19.775,1.282
-0.032,-0.045,-0.216,-3.052,-18.860,0.977
0.017,0.065,-0.202,5.493,-18.066,-0.488
-0.039,0.031,-0.187,21.362,-21.179,-12.390
-0.092,0.023,-0.153,25.024,-26.428,-25.452
-0.128,0.081,-0.083,31.372,-32.104,-38.940
-0.205,0.064,0.032,30.945,-38.208,-58.350
-0.218,0.087,0.155,25.269,-43.640,-78.125
-0.308,0.088,0.381,22.888,-48.889,-99.304
-0.383,0.022,0.534,21.118,-46.143,-124.084
-0.439,-0.255,0.675,5.737,-45.227,-136.841
-0.409,-0.180,0.943,-12.085,-40.222,-120.850
-0.344,-0.056,1.086,-8.667,-21.240,-106.934
-0.280,-0.061,1.085,-8.301,1.587,-100.403
-0.151,-0.158,0.939,-5.798,18.188,-88.501
-0.052,-0.073,0.880,11.536,11.963,-66.284
-0.021,0.053,0.873,37.415,-3.601,-52.002
0.013,0.070,0.908,47.424,-23.376,-52.734
-0.016,0.010,1.050,31.250,-47.974,-56.702
-0.036,0.005,1.250,6.409,-69.641,-53.650
-0.067,0.017,1.465,-18.860,-81.787,-46.204
-0.088,0.036,1.645,-40.222,-81.787,-37.231
-0.110,0.073,1.795,-52.734,-69.641,-27.161
-0.133,0.049,2.017,-5.676,-48.340,-18.127
-0.192,0.055,1.714,44.434,-10.864,-4.578
-0.222,0.111,1.548,41.443,12.085,10.986
-0.186,0.200,1.373,47.791,17.212,17.578
-0.312,0.149,1.445,43.396,5.615,15.564
-0.344,0.117,1.541,37.170,-6.042,15.442
-0.404,0.128,1.578,30.457,-8.667,20.264
-0.466,0.148,1.637,27.893,-11.841,23.682
-0.499,0.158,1.666,25.391,-10.620,25.696
-0.539,0.192,1.687,20.630,-6.042,26.978
-0.570,0.202,1.689,15.747,1.099,25.146
-0.565,0.211,1.613,10.803,12.146,22.156
-0.543,0.230,1.504,4.944,23.254,18.616
-0.512,0.238,1.439,0.671,28.015,13.306
-0.471,0.210,1.375,-3.906,29.968,7.324
-0.409,0.185,1.300,-7.690,31.555,3.601
-0.350,0.169,1.243,-11.780,30.823,1.038
-0.301,0.156,1.207,-15.625,27.283,-1.526
-0.257,0.124,1.155,-18.188,23.926,-3.235
-0.220,0.102,1.094,-20.569,22.705,-3.845
-0.181,0.083,1.036,-21.729,22.583,-3.784
-0.141,0.074,0.984,-20.142,22.095,-2.991
-0.108,0.067,0.936,-19.897,20.630,-2.136
-0.077,0.067,0.895,-19.897,18.738,-0.732
-0.046,0.059,0.862,-19.409,15.930,0.610
-0.023,0.052,0.842,-18.921,11.963,2.258
-0.006,0.045,0.826,-18.555,8.362,4.150
0.005,0.044,0.817,-16.052,6.409,6.226
0.007,0.055,0.799,-12.573,6.104,7.446
-0.001,0.057,0.782,-11.169,5.859,7.629
-0.007,0.058,0.772,-9.521,5.188,7.507
-0.023,0.070,0.787,-6.653,4.028,7.690
-0.050,0.091,0.812,-4.639,2.869,6.592
-0.076,0.074,0.846,-3.113,2.869,4.272
-0.088,0.057,0.869,-1.282,4.395,3.601
-0.097,0.066,0.901,0.732,5.188,4.822
-0.106,0.072,0.934,2.258,5.554,5.615
-0.111,0.061,0.958,2.014,5.798,5.737
-0.126,0.061,0.977,1.160,5.798,6.470
-0.143,0.075,0.989,1.160,6.226,7.751
-0.156,0.082,0.977,0.793,6.775,7.996
-0.170,0.076,0.955,0.488,7.080,7.568
-0.180,0.085,0.957,0.610,5.981,6.836
-0.184,0.100,0.978,1.160,3.235,5.859
-0.183,0.103,1.002,0.549,0.122,4.089
-0.177,0.091,1.019,-0.305,-1.587,2.502
-0.164,0.081,1.027,-1.160,-1.709,1.709
-0.151,0.079,1.029,-1.648,-0.854,2.014
-0.151,0.085,1.028,-2.441,0.366,2.625
-0.157,0.095,1.023,-3.784,1.831,3.174
-0.161,0.093,1.004,-5.127,3.296,3.174
-0.164,0.093,0.993,-4.944,4.272,2.991
-0.165,0.089,0.972,-4.333,4.395,2.625
-0.169,0.093,0.955,-2.991,3.784,2.380
-0.171,0.100,0.949,-1.892,2.441,2.258
-0.171,0.107,0.959,-1.526,0.305,1.404
-0.166,0.105,0.969,-1.587,-1.831,0.305
-0.156,0.094,0.968,-1.648,-2.747,-0.916
-0.141,0.081,0.963,-2.319,-3.235,-1.709
-0.133,0.078,0.964,-2.747,-3.723,-1.770
-0.131,0.077,0.962,-2.930,-3.845,-1.526
-0.129,0.068,0.958,-3.113,-3.784,-1.465
-0.126,0.064,0.968,-3.418,-3.601,-1.282

-0.399,0.265,2.522,22.339,37.964,17.273
-0.501,0.379,2.988,19.226,58.655,20.508
-0.640,0.422,3.352,16.174,89.722,19.653
-0.746,0.423,3.410,12.207,128.906,13.855
-0.722,0.383,3.159,-15.503,172.058,11.902
-0.569,0.188,2.459,-44.312,211.304,11.047
-0.436,0.184,1.686,-63.354,216.492,16.113
-0.276,0.278,1.256,-75.317,171.082,18.494
-0.156,0.182,1.197,-40.649,100.586,6.836
-0.012,0.157,1.212,-1.648,36.377,-4.333
0.097,0.114,1.294,-21.240,-11.780,-18.860
0.187,-0.076,1.407,-71.777,-35.095,-38.818
0.251,-0.223,1.516,-130.188,-28.137,-45.959
0.285,-0.290,1.419,-165.955,9.888,-37.964
0.343,-0.314,1.068,-168.091,63.721,-20.325
0.369,-0.319,0.596,-145.203,108.215,3.113
0.392,-0.163,0.222,-116.211,126.160,27.283
0.359,-0.118,-0.083,-84.473,123.962,37.476
0.327,-0.069,-0.275,-56.824,104.858,44.312
0.321,-0.022,-0.354,-36.865,75.989,47.852
0.286,-0.018,-0.337,-20.691,46.570,45.410
0.254,-0.010,-0.324,-6.653,23.560,43.030
0.208,0.004,-0.269,8.667,2.258,41.992
0.138,-0.000,-0.329,23.926,-5.493,38.940
0.128,-0.004,-0.432,49.072,-11.719,37.415
0.105,0.048,-0.537,68.787,-23.132,36.743
0.043,0.083,-0.591,74.219,-40.161,31.738
0.046,0.058,-0.573,69.153,-60.486,22.095
0.005,0.085,-0.510,48.157,-76.965,11.963
-0.028,0.040,-0.435,25.818,-88.501,1.282
-0.038,-0.042,-0.360,13.794,-95.825,-8.362
-0.031,-0.103,-0.309,9.827,-99.487,-12.756
-0.021,-0.151,-0.296,6.470,-100.525,-13.000
-0.040,-0.165,-0.230,1.465,-102.966,-11.108
-0.062,-0.098,-0.116,3.052,-107.727,-6.104
-0.072,-0.099,0.020,9.949,-116.394,-5.615
-0.077,-0.187,0.089,11.963,-114.197,-7.812
